Channel1	Channel2	Channel3	Channel4	Channel5	Channel6	Channel7	Channel8	FilteredChannel1	FilteredChannel2	FilteredChannel3	FilteredChannel4	FilteredChannel5	FilteredChannel6	FilteredChannel7	FilteredChannel8	GyroX	GyroY	GyroZ	AccX	AccY	AccZ	PPG1	PPG2	rawPPG1	rawPPG2	rawPPG3	Hr	Hrv	Battery	Trigger	PhysicalTrigger	AutoTrigger	NumMeasurements	Timestamp
-65133.945000	-29490.075000	-10170.765000	1539.900000	-19168.020000	-40100.130000	5103.000000	-25099.380000	0.302969	2.750898	4.330327	4.951333	4.114328	-5.363875	-2.116156	-1.259543	-0.045780	2.853620	0.183120	-0.825132	-0.090210	0.546019	-1.000000	-1.000000	-1.000000	-1.000000	-1.000000	-1.000000	-1.000000	64.000000	0.000000	-1.000000	-1.000000	245604.000000	1775715515.433278
-65130.345000	-29485.170000	-10165.680000	1544.985000	-19163.880000	-40097.970000	5103.900000	-25097.220000	1.524208	3.594433	4.345785	4.030384	1.665207	-6.114121	-2.758684	-0.799998	-0.045780	2.853620	0.183120	-0.825132	-0.090210	0.546019	-1.000000	-1.000000	-1.000000	-1.000000	-1.000000	-1.000000	-1.000000	64.000000	0.000000	-1.000000	-1.000000	245605.000000	1775715515.435888
-65131.560000	-29484.630000	-10164.915000	1545.660000	-19162.980000	-40098.240000	5102.775000	-25098.615000	2.051047	3.213256	2.934600	1.853524	-0.910302	-4.395530	-2.588301	-0.224526	-0.045780	2.853620	0.183120	-0.825132	-0.090210	0.546019	-1.000000	-1.000000	-1.000000	-1.000000	-1.000000	-1.000000	-1.000000	64.000000	0.000000	-1.000000	-1.000000	245606.000000	1775715515.435905
-65132.010000	-29484.990000	-10164.555000	1545.345000	-19163.565000	-40100.670000	5102.235000	-25099.335000	1.665180	1.872538	0.846403	-0.539628	-2.560625	-1.536249	-1.659893	0.234361	-0.045780	2.853620	0.183120	-0.825132	-0.090210	0.546019	-1.000000	-1.000000	-1.000000	-1.000000	-1.000000	-1.000000	-1.000000	64.000000	0.000000	-1.000000	-1.000000	245607.000000	1775715515.441990
-65134.170000	-29486.430000	-10165.095000	1543.140000	-19166.355000	-40104.810000	5098.635000	-25101.720000	0.540946	0.027962	-1.163409	-2.396233	-3.048832	0.993929	-0.365045	0.412449	-0.045780	2.853620	0.183120	-0.825132	-0.090210	0.546019	-1.000000	-1.000000	-1.000000	-1.000000	-1.000000	-1.000000	-1.000000	64.000000	0.000000	-1.000000	-1.000000	245608.000000	1775715515.442016
-65132.460000	-29484.360000	-10163.745000	1546.605000	-19161.540000	-40097.970000	5102.460000	-25098.345000	-0.812952	-1.776277	-2.616136	-3.402021	-2.719403	2.325341	0.780942	0.324567	-0.045780	2.853620	0.183120	-0.825132	-0.090210	0.546019	-1.000000	-1.000000	-1.000000	-1.000000	-1.000000	-1.000000	-1.000000	64.000000	0.000000	-1.000000	-1.000000	245609.000000	1775715515.444332
-65129.175000	-29481.030000	-10160.955000	1551.150000	-19155.645000	-40091.085000	5107.005000	-25094.655000	-1.626930	-2.797934	-3.132021	-3.237635	-1.661051	2.864819	1.701064	0.351683	-0.045780	2.853620	0.183120	-0.825132	-0.090210	0.546019	-1.000000	-1.000000	-1.000000	-1.000000	-1.000000	-1.000000	-1.000000	64.000000	0.000000	-1.000000	-1.000000	245610.000000	1775715515.444354
-65136.015000	-29487.870000	-10168.785000	1542.915000	-19164.645000	-40099.680000	5100.840000	-25101.315000	-1.521914	-2.690560	-2.723839	-2.007077	-0.108513	3.165926	2.408776	0.658720	-1.098720	2.548420	0.167860	-0.824705	-0.089966	0.545775	-1.000000	-1.000000	-1.000000	-1.000000	-1.000000	-1.000000	-1.000000	64.000000	0.000000	-1.000000	-1.000000	245611.000000	1775715515.452777
-65135.250000	-29489.355000	-10170.405000	1540.260000	-19168.740000	-40102.605000	5100.210000	-25100.775000	-0.994724	-2.028183	-2.048751	-0.761509	0.814646	2.606444	2.349256	0.693503	-1.098720	2.548420	0.167860	-0.824705	-0.089966	0.545775	-1.000000	-1.000000	-1.000000	-1.000000	-1.000000	-1.000000	-1.000000	64.000000	0.000000	-1.000000	-1.000000	245612.000000	1775715515.452802
-65128.410000	-29484.945000	-10168.020000	1543.095000	-19166.535000	-40098.690000	5105.385000	-25093.350000	-0.479279	-1.387597	-1.535054	-0.320892	0.344701	0.703795	1.272424	0.214903	-1.098720	2.548420	0.167860	-0.824705	-0.089966	0.545775	-1.000000	-1.000000	-1.000000	-1.000000	-1.000000	-1.000000	-1.000000	64.000000	0.000000	-1.000000	-1.000000	245613.000000	1775715515.452829
-65134.215000	-29487.915000	-10169.730000	1541.205000	-19168.695000	-40100.085000	5102.910000	-25098.570000	0.198627	-0.585399	-0.807765	-0.231685	-0.679636	-1.466478	-0.039840	-0.174642	-1.098720	2.548420	0.167860	-0.824705	-0.089966	0.545775	-1.000000	-1.000000	-1.000000	-1.000000	-1.000000	-1.000000	-1.000000	64.000000	0.000000	-1.000000	-1.000000	245614.000000	1775715515.452841
-65132.055000	-29484.720000	-10165.950000	1545.210000	-19165.410000	-40098.960000	5107.095000	-25097.265000	0.864432	0.516605	0.447836	0.264254	-0.962235	-2.533345	-0.794656	-0.247183	-1.098720	2.548420	0.167860	-0.824705	-0.089966	0.545775	-1.000000	-1.000000	-1.000000	-1.000000	-1.000000	-1.000000	-1.000000	64.000000	0.000000	-1.000000	-1.000000	245615.000000	1775715515.458454
-65127.420000	-29481.165000	-10163.790000	1545.255000	-19168.380000	-40110.120000	5103.315000	-25093.845000	1.129327	1.641537	1.967217	1.260096	-0.156592	-2.397161	-0.931184	-0.280400	-1.098720	2.548420	0.167860	-0.824705	-0.089966	0.545775	-1.000000	-1.000000	-1.000000	-1.000000	-1.000000	-1.000000	-1.000000	64.000000	0.000000	-1.000000	-1.000000	245616.000000	1775715515.458481
-65128.500000	-29484.765000	-10167.390000	1540.755000	-19171.305000	-40115.565000	5096.385000	-25095.105000	1.112460	2.392989	3.073776	2.138804	1.011423	-2.034197	-0.983664	-0.262096	-1.098720	2.548420	0.167860	-0.824705	-0.089966	0.545775	-1.000000	-1.000000	-1.000000	-1.000000	-1.000000	-1.000000	-1.000000	64.000000	0.000000	-1.000000	-1.000000	245617.000000	1775715515.472394
-65135.520000	-29492.370000	-10174.410000	1536.165000	-19171.215000	-40107.825000	5101.695000	-25098.165000	0.775624	2.118628	2.858921	1.986519	1.573020	-1.848028	-1.379875	-0.232633	-1.098720	2.548420	0.167860	-0.824705	-0.089966	0.545775	-1.000000	-1.000000	-1.000000	-1.000000	-1.000000	-1.000000	-1.000000	64.000000	0.000000	-1.000000	-1.000000	245618.000000	1775715515.472425
-65127.285000	-29489.490000	-10175.580000	1533.600000	-19170.900000	-40097.970000	5104.215000	-25096.590000	-0.097485	0.524101	0.999936	0.554772	1.323601	-0.762579	-1.554536	-0.436464	-1.098720	2.548420	0.167860	-0.824705	-0.089966	0.545775	-1.000000	-1.000000	-1.000000	-1.000000	-1.000000	-1.000000	-1.000000	64.000000	0.000000	-1.000000	-1.000000	245619.000000	1775715515.472455
-65124.945000	-29488.230000	-10175.130000	1533.195000	-19170.360000	-40090.635000	5101.335000	-25097.895000	-0.879922	-1.360119	-1.434912	-1.250709	0.776875	2.065808	-0.778340	-0.754887	-1.098720	2.548420	0.167860	-0.824705	-0.089966	0.545775	-1.000000	-1.000000	-1.000000	-1.000000	-1.000000	-1.000000	-1.000000	64.000000	0.000000	-1.000000	-1.000000	245620.000000	1775715515.472466
-65138.085000	-29491.515000	-10172.070000	1538.685000	-19169.280000	-40096.800000	5102.100000	-25100.685000	-0.997916	-2.119960	-2.698761	-2.037178	0.413435	5.252574	0.522745	-0.872830	-1.083460	2.655240	0.244160	-0.825865	-0.089416	0.546263	-1.000000	-1.000000	-1.000000	-1.000000	-1.000000	-1.000000	-1.000000	64.000000	0.000000	-1.000000	-1.000000	245621.000000	1775715515.472476
-65140.965000	-29494.260000	-10174.725000	1535.580000	-19172.520000	-40103.190000	5100.570000	-25101.090000	-1.176822	-1.593782	-2.005198	-1.134738	0.262164	5.962470	1.383335	-0.743435	-1.083460	2.655240	0.244160	-0.825865	-0.089416	0.546263	-1.000000	-1.000000	-1.000000	-1.000000	-1.000000	-1.000000	-1.000000	64.000000	0.000000	-1.000000	-1.000000	245622.000000	1775715515.472486
-65137.455000	-29491.965000	-10172.070000	1538.100000	-19169.505000	-40100.040000	5105.430000	-25097.625000	-1.830841	-0.551174	-0.120128	0.719012	0.070566	2.956278	1.472802	-0.345563	-1.083460	2.655240	0.244160	-0.825865	-0.089416	0.546263	-1.000000	-1.000000	-1.000000	-1.000000	-1.000000	-1.000000	-1.000000	64.000000	0.000000	-1.000000	-1.000000	245623.000000	1775715515.472497
-65139.300000	-29494.305000	-10175.040000	1535.085000	-19172.655000	-40105.620000	5102.280000	-25101.000000	-1.934289	0.455287	1.576760	2.118322	-0.245287	-1.892182	1.108227	0.380928	-1.083460	2.655240	0.244160	-0.825865	-0.089416	0.546263	-1.000000	-1.000000	-1.000000	-1.000000	-1.000000	-1.000000	-1.000000	64.000000	0.000000	-1.000000	-1.000000	245624.000000	1775715515.472506
-65138.940000	-29492.820000	-10174.635000	1535.445000	-19173.060000	-40110.885000	5096.610000	-25103.790000	-0.731959	1.188738	2.154036	2.204553	-0.601430	-5.715347	0.445385	1.049877	-1.083460	2.655240	0.244160	-0.825865	-0.089416	0.546263	-1.000000	-1.000000	-1.000000	-1.000000	-1.000000	-1.000000	-1.000000	64.000000	0.000000	-1.000000	-1.000000	245625.000000	1775715515.476205
-65130.345000	-29482.965000	-10164.960000	1543.860000	-19165.050000	-40105.890000	5100.255000	-25097.940000	1.347258	1.691068	1.712237	1.265665	-0.753146	-6.852668	-0.554955	1.206304	-1.083460	2.655240	0.244160	-0.825865	-0.089416	0.546263	-1.000000	-1.000000	-1.000000	-1.000000	-1.000000	-1.000000	-1.000000	64.000000	0.000000	-1.000000	-1.000000	245626.000000	1775715515.476230
-65132.325000	-29482.830000	-10163.790000	1545.930000	-19164.420000	-40104.765000	5101.155000	-25098.750000	3.413108	2.231264	1.176726	0.401012	-0.270724	-4.935474	-1.344490	1.068432	-1.083460	2.655240	0.244160	-0.825865	-0.089416	0.546263	-1.000000	-1.000000	-1.000000	-1.000000	-1.000000	-1.000000	-1.000000	64.000000	0.000000	-1.000000	-1.000000	245627.000000	1775715515.483829
-65130.480000	-29483.640000	-10165.905000	1545.030000	-19163.880000	-40099.230000	5103.765000	-25096.140000	4.398777	2.494286	0.915971	0.140331	0.695215	-0.827060	-1.171883	1.002626	-1.083460	2.655240	0.244160	-0.825865	-0.089416	0.546263	-1.000000	-1.000000	-1.000000	-1.000000	-1.000000	-1.000000	-1.000000	64.000000	0.000000	-1.000000	-1.000000	245628.000000	1775715515.483856
-65134.080000	-29489.130000	-10171.080000	1539.855000	-19167.705000	-40099.860000	5104.215000	-25097.490000	3.495122	1.570601	0.206125	-0.185559	1.183073	3.501158	-0.097018	0.892464	-1.083460	2.655240	0.244160	-0.825865	-0.089416	0.546263	-1.000000	-1.000000	-1.000000	-1.000000	-1.000000	-1.000000	-1.000000	64.000000	0.000000	-1.000000	-1.000000	245629.000000	1775715515.483883
-65136.015000	-29491.155000	-10172.430000	1538.280000	-19168.380000	-40097.385000	5104.035000	-25100.010000	0.895905	-0.780293	-1.445385	-1.296115	0.484738	5.989998	1.056078	0.395493	-1.083460	2.655240	0.244160	-0.825865	-0.089416	0.546263	-1.000000	-1.000000	-1.000000	-1.000000	-1.000000	-1.000000	-1.000000	64.000000	0.000000	-1.000000	-1.000000	245630.000000	1775715515.483895
-65133.630000	-29487.960000	-10169.910000	1540.035000	-19168.830000	-40103.505000	5102.505000	-25099.560000	-2.148378	-3.394209	-3.234781	-2.759555	-1.018626	5.580085	1.438726	-0.575789	-1.358140	2.243220	0.839300	-0.826231	-0.087402	0.546080	-1.000000	-1.000000	-1.000000	-1.000000	-1.000000	-1.000000	-1.000000	64.000000	0.000000	-1.000000	-1.000000	245631.000000	1775715515.486853
-65130.120000	-29483.865000	-10167.120000	1542.015000	-19168.605000	-40113.405000	5103.360000	-25095.510000	-3.958710	-4.436058	-3.693394	-3.302635	-2.213563	2.465259	0.824751	-1.492256	-1.358140	2.243220	0.839300	-0.826231	-0.087402	0.546080	-1.000000	-1.000000	-1.000000	-1.000000	-1.000000	-1.000000	-1.000000	64.000000	0.000000	-1.000000	-1.000000	245632.000000	1775715515.486872
-65128.320000	-29484.360000	-10168.290000	1542.015000	-19166.580000	-40108.230000	5107.185000	-25092.180000	-3.585487	-3.085587	-2.249440	-2.216528	-2.236151	-1.890569	-0.198868	-1.537142	-1.358140	2.243220	0.839300	-0.826231	-0.087402	0.546080	-1.000000	-1.000000	-1.000000	-1.000000	-1.000000	-1.000000	-1.000000	64.000000	0.000000	-1.000000	-1.000000	245633.000000	1775715515.492997
-65130.795000	-29487.015000	-10169.370000	1540.710000	-19166.355000	-40099.950000	5106.825000	-25095.555000	-1.632518	-0.421337	0.124447	-0.128130	-1.052918	-4.804035	-0.791983	-0.623237	-1.358140	2.243220	0.839300	-0.826231	-0.087402	0.546080	-1.000000	-1.000000	-1.000000	-1.000000	-1.000000	-1.000000	-1.000000	64.000000	0.000000	-1.000000	-1.000000	245634.000000	1775715515.493020
-65135.250000	-29489.895000	-10172.835000	1536.120000	-19171.125000	-40096.665000	5104.305000	-25100.640000	0.249566	1.623283	1.866996	1.591133	0.519933	-4.181107	-0.771974	0.248281	-1.358140	2.243220	0.839300	-0.826231	-0.087402	0.546080	-1.000000	-1.000000	-1.000000	-1.000000	-1.000000	-1.000000	-1.000000	64.000000	0.000000	-1.000000	-1.000000	245635.000000	1775715515.504182
-65138.445000	-29493.540000	-10177.290000	1531.620000	-19175.490000	-40097.340000	5101.380000	-25103.655000	0.780545	1.944969	2.071773	1.919225	1.324056	-0.763548	-0.680301	0.067432	-1.358140	2.243220	0.839300	-0.826231	-0.087402	0.546080	-1.000000	-1.000000	-1.000000	-1.000000	-1.000000	-1.000000	-1.000000	64.000000	0.000000	-1.000000	-1.000000	245636.000000	1775715515.504207
-65133.945000	-29488.950000	-10171.800000	1537.695000	-19169.640000	-40096.980000	5108.310000	-25098.660000	0.145897	0.975296	1.075473	1.051516	1.006876	2.587539	-0.771613	-0.868956	-1.358140	2.243220	0.839300	-0.826231	-0.087402	0.546080	-1.000000	-1.000000	-1.000000	-1.000000	-1.000000	-1.000000	-1.000000	64.000000	0.000000	-1.000000	-1.000000	245637.000000	1775715515.505830
-65138.715000	-29494.485000	-10175.895000	1533.780000	-19174.320000	-40105.620000	5105.745000	-25103.160000	-0.448392	-0.025254	0.078609	0.194811	0.378765	3.492039	-0.597436	-1.325451	-1.358140	2.243220	0.839300	-0.826231	-0.087402	0.546080	-1.000000	-1.000000	-1.000000	-1.000000	-1.000000	-1.000000	-1.000000	64.000000	0.000000	-1.000000	-1.000000	245638.000000	1775715515.505849
-65136.465000	-29493.180000	-10174.815000	1534.365000	-19175.580000	-40119.750000	5103.765000	-25101.045000	-0.276692	-0.334071	-0.158771	0.106239	0.119313	1.319448	-0.013364	-0.721188	-1.358140	2.243220	0.839300	-0.826231	-0.087402	0.546080	-1.000000	-1.000000	-1.000000	-1.000000	-1.000000	-1.000000	-1.000000	64.000000	0.000000	-1.000000	-1.000000	245639.000000	1775715515.505885
-65137.275000	-29492.145000	-10173.780000	1535.760000	-19175.940000	-40131.360000	5101.110000	-25103.250000	0.470059	-0.027074	0.203422	0.534488	0.121911	-2.877211	0.389126	0.457523	-1.358140	2.243220	0.839300	-0.826231	-0.087402	0.546080	-1.000000	-1.000000	-1.000000	-1.000000	-1.000000	-1.000000	-1.000000	64.000000	0.000000	-1.000000	-1.000000	245640.000000	1775715515.505897
-65142.675000	-29495.835000	-10177.245000	1533.510000	-19178.055000	-40129.830000	5096.520000	-25109.640000	1.181289	0.552783	0.676241	0.963519	0.168328	-6.547085	0.146063	1.330786	-1.632820	2.380560	0.289940	-0.826902	-0.086303	0.546874	-1.000000	-1.000000	-1.000000	-1.000000	-1.000000	-1.000000	-1.000000	64.000000	0.000000	-1.000000	-1.000000	245641.000000	1775715515.506495
-65139.570000	-29490.840000	-10170.945000	1540.125000	-19172.520000	-40111.065000	5097.960000	-25106.940000	1.290654	1.000006	0.885431	1.107162	0.301529	-6.466338	-0.508236	1.303711	-1.632820	2.380560	0.289940	-0.826902	-0.086303	0.546874	-1.000000	-1.000000	-1.000000	-1.000000	-1.000000	-1.000000	-1.000000	64.000000	0.000000	-1.000000	-1.000000	245642.000000	1775715515.506514
-65138.895000	-29489.085000	-10168.380000	1543.500000	-19166.490000	-40086.225000	5100.885000	-25105.545000	0.900462	1.208690	0.920907	1.104402	0.803420	-0.830124	-0.775526	0.727815	-1.632820	2.380560	0.289940	-0.826902	-0.086303	0.546874	-1.000000	-1.000000	-1.000000	-1.000000	-1.000000	-1.000000	-1.000000	64.000000	0.000000	-1.000000	-1.000000	245643.000000	1775715515.511180
-65141.640000	-29492.145000	-10172.115000	1540.935000	-19165.185000	-40083.750000	5102.505000	-25107.750000	0.518868	1.226761	0.930239	1.072843	1.720451	8.248737	-0.025832	0.402793	-1.632820	2.380560	0.289940	-0.826902	-0.086303	0.546874	-1.000000	-1.000000	-1.000000	-1.000000	-1.000000	-1.000000	-1.000000	64.000000	0.000000	-1.000000	-1.000000	245644.000000	1775715515.511204
-65133.765000	-29486.475000	-10167.795000	1542.330000	-19168.650000	-40100.355000	5102.775000	-25101.945000	0.369857	0.883867	0.604133	0.618588	2.256232	14.541616	1.402717	0.556832	-1.632820	2.380560	0.289940	-0.826902	-0.086303	0.546874	-1.000000	-1.000000	-1.000000	-1.000000	-1.000000	-1.000000	-1.000000	64.000000	0.000000	-1.000000	-1.000000	245645.000000	1775715515.515552
-65129.580000	-29483.820000	-10165.905000	1543.590000	-19167.660000	-40097.790000	5108.850000	-25095.780000	0.614841	0.297861	-0.111966	-0.445530	1.434943	12.480920	2.556324	1.079963	-1.632820	2.380560	0.289940	-0.826902	-0.086303	0.546874	-1.000000	-1.000000	-1.000000	-1.000000	-1.000000	-1.000000	-1.000000	64.000000	0.000000	-1.000000	-1.000000	245646.000000	1775715515.515578
-65138.265000	-29492.370000	-10174.455000	1534.770000	-19175.580000	-40100.445000	5104.845000	-25103.115000	1.023995	-0.311110	-0.927658	-1.758226	-0.731121	2.905459	2.744657	1.611146	-1.632820	2.380560	0.289940	-0.826902	-0.086303	0.546874	-1.000000	-1.000000	-1.000000	-1.000000	-1.000000	-1.000000	-1.000000	64.000000	0.000000	-1.000000	-1.000000	245647.000000	1775715515.518785
-65135.205000	-29490.615000	-10172.115000	1536.165000	-19174.320000	-40101.345000	5108.040000	-25100.640000	0.671009	-1.189353	-1.817568	-2.937677	-3.219018	-7.899618	1.755836	1.288849	-1.632820	2.380560	0.289940	-0.826902	-0.086303	0.546874	-1.000000	-1.000000	-1.000000	-1.000000	-1.000000	-1.000000	-1.000000	64.000000	0.000000	-1.000000	-1.000000	245648.000000	1775715515.518802
-65137.770000	-29493.630000	-10175.175000	1532.745000	-19176.930000	-40105.440000	5105.160000	-25103.565000	-0.716109	-2.263617	-2.540745	-3.484676	-4.653914	-14.093619	-0.079719	-0.219852	-1.632820	2.380560	0.289940	-0.826902	-0.086303	0.546874	-1.000000	-1.000000	-1.000000	-1.000000	-1.000000	-1.000000	-1.000000	64.000000	0.000000	-1.000000	-1.000000	245649.000000	1775715515.525761
-65136.330000	-29489.670000	-10169.775000	1539.585000	-19170.495000	-40101.030000	5105.835000	-25103.115000	-2.188625	-2.730917	-2.407855	-2.743822	-4.033897	-13.657422	-1.967865	-2.085489	-1.632820	2.380560	0.289940	-0.826902	-0.086303	0.546874	-1.000000	-1.000000	-1.000000	-1.000000	-1.000000	-1.000000	-1.000000	64.000000	0.000000	-1.000000	-1.000000	245650.000000	1775715515.525788
-65142.270000	-29495.700000	-10175.130000	1535.085000	-19174.365000	-40105.800000	5104.620000	-25106.310000	-2.819166	-2.052082	-1.149961	-0.641649	-1.479588	-8.064839	-3.129414	-3.235719	-0.869820	2.838360	-0.244160	-0.826719	-0.086792	0.546385	-1.000000	-1.000000	-1.000000	-1.000000	-1.000000	-1.000000	-1.000000	64.000000	0.000000	-1.000000	-1.000000	245651.000000	1775715515.529406
-65138.220000	-29492.370000	-10172.430000	1537.695000	-19172.205000	-40104.000000	5105.745000	-25103.745000	-2.422895	-0.599758	0.582580	1.850740	1.628269	-0.689833	-3.143358	-3.133684	-0.869820	2.838360	-0.244160	-0.826719	-0.086792	0.546385	-1.000000	-1.000000	-1.000000	-1.000000	-1.000000	-1.000000	-1.000000	64.000000	0.000000	-1.000000	-1.000000	245652.000000	1775715515.529427
-65133.495000	-29485.890000	-10165.545000	1545.120000	-19165.680000	-40098.195000	5107.320000	-25100.685000	-1.083652	1.034998	2.014843	3.586456	3.790790	5.320097	-2.048573	-1.769564	-0.869820	2.838360	-0.244160	-0.826719	-0.086792	0.546385	-1.000000	-1.000000	-1.000000	-1.000000	-1.000000	-1.000000	-1.000000	64.000000	0.000000	-1.000000	-1.000000	245653.000000	1775715515.534493
-65137.860000	-29489.265000	-10169.865000	1540.305000	-19170.945000	-40105.890000	5099.760000	-25105.410000	0.870030	2.510092	2.865909	4.118629	4.397834	8.337412	-0.455885	0.290591	-0.869820	2.838360	-0.244160	-0.826719	-0.086792	0.546385	-1.000000	-1.000000	-1.000000	-1.000000	-1.000000	-1.000000	-1.000000	64.000000	0.000000	-1.000000	-1.000000	245654.000000	1775715515.534512
-65139.255000	-29490.930000	-10171.125000	1538.640000	-19171.845000	-40105.215000	5100.660000	-25106.265000	2.375532	3.146786	2.754655	3.216972	3.326248	7.923047	0.671113	1.886484	-0.869820	2.838360	-0.244160	-0.826719	-0.086792	0.546385	-1.000000	-1.000000	-1.000000	-1.000000	-1.000000	-1.000000	-1.000000	64.000000	0.000000	-1.000000	-1.000000	245655.000000	1775715515.535193
-65134.080000	-29486.970000	-10168.110000	1541.115000	-19168.650000	-40097.655000	5108.985000	-25101.630000	2.552445	2.382797	1.455272	1.000188	0.983959	4.974146	1.113054	2.275119	-0.869820	2.838360	-0.244160	-0.826719	-0.086792	0.546385	-1.000000	-1.000000	-1.000000	-1.000000	-1.000000	-1.000000	-1.000000	64.000000	0.000000	-1.000000	-1.000000	245656.000000	1775715515.535210
-65135.745000	-29489.715000	-10171.755000	1537.560000	-19173.330000	-40101.480000	5106.240000	-25103.340000	1.739405	0.712694	-0.369035	-1.493127	-1.434617	1.552045	1.558343	1.832128	-0.869820	2.838360	-0.244160	-0.826719	-0.086792	0.546385	-1.000000	-1.000000	-1.000000	-1.000000	-1.000000	-1.000000	-1.000000	64.000000	0.000000	-1.000000	-1.000000	245657.000000	1775715515.540980
-65136.915000	-29489.715000	-10172.160000	1537.605000	-19172.745000	-40096.980000	5107.005000	-25103.205000	0.656341	-0.937901	-1.837541	-3.123130	-2.917765	-0.873240	2.109359	1.149770	-0.869820	2.838360	-0.244160	-0.826719	-0.086792	0.546385	-1.000000	-1.000000	-1.000000	-1.000000	-1.000000	-1.000000	-1.000000	64.000000	0.000000	-1.000000	-1.000000	245658.000000	1775715515.541007
-65137.455000	-29490.255000	-10171.980000	1538.595000	-19171.305000	-40096.080000	5108.310000	-25102.665000	-0.406974	-2.003918	-2.487716	-3.392313	-3.128646	-2.037298	2.103564	0.410666	-0.869820	2.838360	-0.244160	-0.826719	-0.086792	0.546385	-1.000000	-1.000000	-1.000000	-1.000000	-1.000000	-1.000000	-1.000000	64.000000	0.000000	-1.000000	-1.000000	245659.000000	1775715515.548709
-65141.100000	-29494.215000	-10176.795000	1534.635000	-19174.410000	-40101.165000	5106.510000	-25104.690000	-1.313439	-2.312487	-2.246974	-2.430709	-2.186210	-2.310631	1.262507	-0.304552	-0.869820	2.838360	-0.244160	-0.826719	-0.086792	0.546385	-1.000000	-1.000000	-1.000000	-1.000000	-1.000000	-1.000000	-1.000000	64.000000	0.000000	-1.000000	-1.000000	245660.000000	1775715515.548734
-65141.910000	-29493.495000	-10174.995000	1536.975000	-19173.240000	-40101.345000	5107.635000	-25105.635000	-1.890255	-2.002387	-1.420065	-0.885161	-0.695245	-2.367003	-0.080657	-0.911775	0.412020	3.174080	-0.686700	-0.826963	-0.087341	0.546080	-1.000000	-1.000000	-1.000000	-1.000000	-1.000000	-1.000000	-1.000000	64.000000	0.000000	-1.000000	-1.000000	245661.000000	1775715515.548770
-65136.150000	-29486.880000	-10167.345000	1543.995000	-19165.995000	-40094.685000	5112.405000	-25100.280000	-1.817872	-1.115850	-0.193563	0.722427	0.774155	-2.341599	-1.232954	-1.206491	0.412020	3.174080	-0.686700	-0.826963	-0.087341	0.546080	-1.000000	-1.000000	-1.000000	-1.000000	-1.000000	-1.000000	-1.000000	64.000000	0.000000	-1.000000	-1.000000	245662.000000	1775715515.548782
-65134.980000	-29486.115000	-10166.805000	1544.085000	-19166.715000	-40096.080000	5111.505000	-25099.380000	-0.743117	0.442248	1.470229	2.248519	2.063105	-1.664874	-1.541485	-0.829449	0.412020	3.174080	-0.686700	-0.826963	-0.087341	0.546080	-1.000000	-1.000000	-1.000000	-1.000000	-1.000000	-1.000000	-1.000000	64.000000	0.000000	-1.000000	-1.000000	245663.000000	1775715515.557838
-65135.520000	-29488.005000	-10169.325000	1541.025000	-19172.385000	-40103.550000	5106.330000	-25101.180000	0.971414	2.106845	2.938330	3.154132	2.690343	-0.449677	-1.173175	0.088021	0.412020	3.174080	-0.686700	-0.826963	-0.087341	0.546080	-1.000000	-1.000000	-1.000000	-1.000000	-1.000000	-1.000000	-1.000000	64.000000	0.000000	-1.000000	-1.000000	245664.000000	1775715515.557864
-65134.530000	-29488.860000	-10171.800000	1537.785000	-19175.805000	-40111.155000	5103.675000	-25099.830000	2.218283	2.727268	3.015764	2.568020	1.849934	0.143085	-0.981360	0.781020	0.412020	3.174080	-0.686700	-0.826963	-0.087341	0.546080	-1.000000	-1.000000	-1.000000	-1.000000	-1.000000	-1.000000	-1.000000	64.000000	0.000000	-1.000000	-1.000000	245665.000000	1775715515.557892
-65135.340000	-29489.445000	-10173.375000	1535.805000	-19178.190000	-40114.485000	5104.665000	-25099.155000	2.216053	1.808610	1.337039	0.461045	-0.331304	-0.509832	-1.265291	0.769113	0.412020	3.174080	-0.686700	-0.826963	-0.087341	0.546080	-1.000000	-1.000000	-1.000000	-1.000000	-1.000000	-1.000000	-1.000000	64.000000	0.000000	-1.000000	-1.000000	245666.000000	1775715515.557901
-65137.725000	-29491.020000	-10174.140000	1534.500000	-19179.090000	-40111.470000	5104.620000	-25100.820000	1.046431	-0.008844	-1.107100	-2.004264	-2.503260	-1.441343	-1.373130	0.230678	0.412020	3.174080	-0.686700	-0.826963	-0.087341	0.546080	-1.000000	-1.000000	-1.000000	-1.000000	-1.000000	-1.000000	-1.000000	64.000000	0.000000	-1.000000	-1.000000	245667.000000	1775715515.564288
-65142.225000	-29494.890000	-10177.380000	1531.395000	-19178.415000	-40102.695000	5102.910000	-25106.220000	-0.713143	-1.711546	-2.900200	-3.441753	-3.242943	-0.960697	-0.727879	-0.561427	0.412020	3.174080	-0.686700	-0.826963	-0.087341	0.546080	-1.000000	-1.000000	-1.000000	-1.000000	-1.000000	-1.000000	-1.000000	64.000000	0.000000	-1.000000	-1.000000	245668.000000	1775715515.564314
-65140.785000	-29493.855000	-10175.670000	1534.095000	-19174.590000	-40096.440000	5104.575000	-25105.005000	-2.281289	-2.598472	-3.231591	-3.194558	-2.057143	1.607745	0.463164	-1.400447	0.412020	3.174080	-0.686700	-0.826963	-0.087341	0.546080	-1.000000	-1.000000	-1.000000	-1.000000	-1.000000	-1.000000	-1.000000	64.000000	0.000000	-1.000000	-1.000000	245669.000000	1775715515.564334
-65139.930000	-29492.595000	-10174.815000	1535.535000	-19174.095000	-40100.715000	5101.920000	-25103.880000	-2.786929	-2.305710	-2.075147	-1.426620	0.424342	4.838158	1.571003	-1.770170	0.412020	3.174080	-0.686700	-0.826963	-0.087341	0.546080	-1.000000	-1.000000	-1.000000	-1.000000	-1.000000	-1.000000	-1.000000	64.000000	0.000000	-1.000000	-1.000000	245670.000000	1775715515.564345
-65142.045000	-29493.945000	-10175.670000	1535.445000	-19174.770000	-40102.110000	5097.780000	-25106.085000	-1.866491	-0.927119	-0.046297	1.037029	2.782559	6.088967	1.969120	-1.195798	0.824040	2.868880	-1.220800	-0.826170	-0.086059	0.546813	-1.000000	-1.000000	-1.000000	-1.000000	-1.000000	-1.000000	-1.000000	64.000000	0.000000	-1.000000	-1.000000	245671.000000	1775715515.570996
-65137.320000	-29488.635000	-10170.630000	1540.485000	-19170.405000	-40099.725000	5104.485000	-25100.325000	-0.060343	0.885361	1.895230	3.052088	3.745908	4.077310	1.506718	0.139046	0.824040	2.868880	-1.220800	-0.826170	-0.086059	0.546813	-1.000000	-1.000000	-1.000000	-1.000000	-1.000000	-1.000000	-1.000000	64.000000	0.000000	-1.000000	-1.000000	245672.000000	1775715515.571023
-65136.600000	-29489.175000	-10171.845000	1538.775000	-19172.025000	-40105.755000	5108.535000	-25099.515000	1.771827	2.376025	3.023466	3.822244	3.070524	0.017010	0.923360	1.670548	0.824040	2.868880	-1.220800	-0.826170	-0.086059	0.546813	-1.000000	-1.000000	-1.000000	-1.000000	-1.000000	-1.000000	-1.000000	64.000000	0.000000	-1.000000	-1.000000	245673.000000	1775715515.573647
-65140.740000	-29494.080000	-10176.930000	1533.060000	-19177.065000	-40110.750000	5106.555000	-25105.275000	2.828373	2.860055	2.891488	2.999785	1.210802	-3.990207	0.894038	2.634514	0.824040	2.868880	-1.220800	-0.826170	-0.086059	0.546813	-1.000000	-1.000000	-1.000000	-1.000000	-1.000000	-1.000000	-1.000000	64.000000	0.000000	-1.000000	-1.000000	245674.000000	1775715515.573671
-65141.595000	-29493.810000	-10175.805000	1533.600000	-19177.020000	-40109.265000	5105.295000	-25107.795000	2.463900	1.890443	1.383064	0.729411	-1.206170	-6.356499	0.956081	2.181023	0.824040	2.868880	-1.220800	-0.826170	-0.086059	0.546813	-1.000000	-1.000000	-1.000000	-1.000000	-1.000000	-1.000000	-1.000000	64.000000	0.000000	-1.000000	-1.000000	245675.000000	1775715515.576727
-65143.755000	-29495.070000	-10176.075000	1533.510000	-19177.065000	-40106.925000	5106.330000	-25109.145000	0.812351	-0.059570	-0.731773	-1.892605	-3.187295	-6.093681	0.348825	0.336687	0.824040	2.868880	-1.220800	-0.826170	-0.086059	0.546813	-1.000000	-1.000000	-1.000000	-1.000000	-1.000000	-1.000000	-1.000000	64.000000	0.000000	-1.000000	-1.000000	245676.000000	1775715515.576751
-65145.825000	-29498.220000	-10178.370000	1532.385000	-19177.245000	-40104.585000	5106.420000	-25110.135000	-1.145781	-1.837665	-2.232050	-3.395967	-3.720580	-3.215016	-0.805714	-1.692363	0.824040	2.868880	-1.220800	-0.826170	-0.086059	0.546813	-1.000000	-1.000000	-1.000000	-1.000000	-1.000000	-1.000000	-1.000000	64.000000	0.000000	-1.000000	-1.000000	245677.000000	1775715515.578810
-65144.115000	-29496.690000	-10177.920000	1531.935000	-19179.180000	-40110.840000	5105.205000	-25108.515000	-2.336548	-2.599875	-2.525299	-3.185120	-2.664455	0.759314	-1.802283	-2.583381	0.824040	2.868880	-1.220800	-0.826170	-0.086059	0.546813	-1.000000	-1.000000	-1.000000	-1.000000	-1.000000	-1.000000	-1.000000	64.000000	0.000000	-1.000000	-1.000000	245678.000000	1775715515.578833
-65142.180000	-29493.675000	-10174.410000	1535.490000	-19178.055000	-40111.605000	5105.070000	-25107.615000	-2.140527	-2.048095	-1.698097	-1.664018	-0.781574	3.575237	-2.165713	-1.861797	0.824040	2.868880	-1.220800	-0.826170	-0.086059	0.546813	-1.000000	-1.000000	-1.000000	-1.000000	-1.000000	-1.000000	-1.000000	64.000000	0.000000	-1.000000	-1.000000	245679.000000	1775715515.583535
-65139.795000	-29489.940000	-10169.955000	1538.820000	-19175.040000	-40112.415000	5104.395000	-25106.490000	-0.672159	-0.353895	-0.069589	0.440334	1.072314	4.034901	-1.840571	-0.068218	0.824040	2.868880	-1.220800	-0.826170	-0.086059	0.546813	-1.000000	-1.000000	-1.000000	-1.000000	-1.000000	-1.000000	-1.000000	64.000000	0.000000	-1.000000	-1.000000	245680.000000	1775715515.583562
-65139.165000	-29490.480000	-10171.530000	1536.930000	-19174.905000	-40110.615000	5107.680000	-25103.790000	1.210915	1.678579	1.709801	2.286460	2.403947	2.758343	-0.969813	1.738302	-0.915600	3.097780	-1.098720	-0.825315	-0.084533	0.545958	-1.000000	-1.000000	-1.000000	-1.000000	-1.000000	-1.000000	-1.000000	64.000000	0.000000	-1.000000	-1.000000	245681.000000	1775715515.590906
-65137.230000	-29489.940000	-10171.170000	1538.955000	-19171.215000	-40101.795000	5115.195000	-25098.975000	2.440367	2.866375	2.627587	2.997808	2.939742	1.299908	0.355919	2.773126	-0.915600	3.097780	-1.098720	-0.825315	-0.084533	0.545958	-1.000000	-1.000000	-1.000000	-1.000000	-1.000000	-1.000000	-1.000000	64.000000	0.000000	-1.000000	-1.000000	245682.000000	1775715515.590933
-65138.265000	-29491.470000	-10172.070000	1538.100000	-19171.845000	-40109.805000	5116.545000	-25099.110000	2.409419	2.480664	2.062285	2.269014	2.585828	0.655736	1.941515	2.799714	-0.915600	3.097780	-1.098720	-0.825315	-0.084533	0.545958	-1.000000	-1.000000	-1.000000	-1.000000	-1.000000	-1.000000	-1.000000	64.000000	0.000000	-1.000000	-1.000000	245683.000000	1775715515.598162
-65141.820000	-29495.745000	-10178.190000	1531.305000	-19180.710000	-40134.420000	5108.760000	-25103.970000	1.144228	0.712008	0.282408	0.494734	1.292315	-0.082821	2.888827	1.729136	-0.915600	3.097780	-1.098720	-0.825315	-0.084533	0.545958	-1.000000	-1.000000	-1.000000	-1.000000	-1.000000	-1.000000	-1.000000	64.000000	0.000000	-1.000000	-1.000000	245684.000000	1775715515.598187
-65137.815000	-29490.930000	-10173.105000	1535.625000	-19178.595000	-40138.920000	5107.635000	-25101.855000	-0.742820	-1.468745	-1.782272	-1.575940	-0.837315	-2.515244	2.039403	-0.321619	-0.915600	3.097780	-1.098720	-0.825315	-0.084533	0.545958	-1.000000	-1.000000	-1.000000	-1.000000	-1.000000	-1.000000	-1.000000	64.000000	0.000000	-1.000000	-1.000000	245685.000000	1775715515.598212
-65140.965000	-29491.785000	-10173.555000	1535.400000	-19179.180000	-40132.755000	5101.290000	-25107.705000	-2.217971	-2.747280	-2.881789	-2.852988	-2.866868	-5.534146	-0.515808	-2.570015	-0.915600	3.097780	-1.098720	-0.825315	-0.084533	0.545958	-1.000000	-1.000000	-1.000000	-1.000000	-1.000000	-1.000000	-1.000000	64.000000	0.000000	-1.000000	-1.000000	245686.000000	1775715515.598224
-65146.905000	-29496.555000	-10177.245000	1531.575000	-19181.790000	-40117.725000	5093.865000	-25115.805000	-2.709060	-2.547818	-2.408561	-2.636991	-3.541930	-5.497482	-3.358516	-4.133308	-0.915600	3.097780	-1.098720	-0.825315	-0.084533	0.545958	-1.000000	-1.000000	-1.000000	-1.000000	-1.000000	-1.000000	-1.000000	64.000000	0.000000	-1.000000	-1.000000	245687.000000	1775715515.601356
-65146.860000	-29496.285000	-10176.165000	1534.005000	-19175.895000	-40107.105000	5095.755000	-25115.670000	-2.477088	-1.513427	-1.009675	-1.356326	-2.503497	-0.547986	-4.911282	-4.603649	-0.915600	3.097780	-1.098720	-0.825315	-0.084533	0.545958	-1.000000	-1.000000	-1.000000	-1.000000	-1.000000	-1.000000	-1.000000	64.000000	0.000000	-1.000000	-1.000000	245688.000000	1775715515.601377
-65145.645000	-29495.790000	-10175.400000	1535.715000	-19172.745000	-40095.990000	5101.695000	-25112.970000	-1.718711	-0.410716	0.397405	0.207532	-0.222675	6.906572	-4.003124	-3.577524	-0.915600	3.097780	-1.098720	-0.825315	-0.084533	0.545958	-1.000000	-1.000000	-1.000000	-1.000000	-1.000000	-1.000000	-1.000000	64.000000	0.000000	-1.000000	-1.000000	245689.000000	1775715515.603866
-65138.670000	-29491.830000	-10173.915000	1536.075000	-19173.330000	-40097.430000	5110.830000	-25104.285000	-0.209428	0.636894	1.432368	1.572143	2.296451	12.035930	-0.419040	-0.734482	-0.915600	3.097780	-1.098720	-0.825315	-0.084533	0.545958	-1.000000	-1.000000	-1.000000	-1.000000	-1.000000	-1.000000	-1.000000	64.000000	0.000000	-1.000000	-1.000000	245690.000000	1775715515.603888
-65138.580000	-29492.145000	-10176.840000	1532.655000	-19178.955000	-40109.670000	5108.670000	-25103.610000	1.945427	1.671994	1.931541	2.256123	3.591284	10.977068	4.306959	3.230751	-2.075360	3.006220	-0.885080	-0.825071	-0.085327	0.545348	-1.000000	-1.000000	-1.000000	-1.000000	-1.000000	-1.000000	-1.000000	64.000000	0.000000	-1.000000	-1.000000	245691.000000	1775715515.608323
-65142.540000	-29492.505000	-10176.705000	1533.510000	-19178.640000	-40108.140000	5106.060000	-25109.190000	3.678290	2.343387	1.701124	1.880376	2.730636	3.514379	7.297956	6.261577	-2.075360	3.006220	-0.885080	-0.825071	-0.085327	0.545348	-1.000000	-1.000000	-1.000000	-1.000000	-1.000000	-1.000000	-1.000000	64.000000	0.000000	-1.000000	-1.000000	245692.000000	1775715515.608352
-65137.275000	-29485.980000	-10168.245000	1542.870000	-19168.515000	-40098.285000	5112.585000	-25103.655000	3.748481	2.264898	0.992748	0.883468	0.553521	-6.031366	6.632696	6.381920	-2.075360	3.006220	-0.885080	-0.825071	-0.085327	0.545348	-1.000000	-1.000000	-1.000000	-1.000000	-1.000000	-1.000000	-1.000000	64.000000	0.000000	-1.000000	-1.000000	245693.000000	1775715515.611714
-65139.255000	-29488.410000	-10169.775000	1542.645000	-19167.840000	-40102.065000	5110.110000	-25104.870000	2.168567	1.566052	0.527790	0.304914	-0.957267	-11.888931	3.068916	3.693138	-2.075360	3.006220	-0.885080	-0.825071	-0.085327	0.545348	-1.000000	-1.000000	-1.000000	-1.000000	-1.000000	-1.000000	-1.000000	64.000000	0.000000	-1.000000	-1.000000	245694.000000	1775715515.611743
-65143.485000	-29493.765000	-10176.660000	1535.535000	-19174.455000	-40108.140000	5106.870000	-25108.290000	-0.108827	0.398926	0.319695	0.246526	-1.075453	-11.810666	-1.253056	-0.063804	-2.075360	3.006220	-0.885080	-0.825071	-0.085327	0.545348	-1.000000	-1.000000	-1.000000	-1.000000	-1.000000	-1.000000	-1.000000	64.000000	0.000000	-1.000000	-1.000000	245695.000000	1775715515.614424
-65146.140000	-29496.420000	-10179.180000	1533.240000	-19175.580000	-40102.020000	5109.705000	-25109.235000	-2.288606	-1.298222	-0.457232	-0.319452	-0.923160	-7.651751	-4.596687	-3.286963	-2.075360	3.006220	-0.885080	-0.825071	-0.085327	0.545348	-1.000000	-1.000000	-1.000000	-1.000000	-1.000000	-1.000000	-1.000000	64.000000	0.000000	-1.000000	-1.000000	245696.000000	1775715515.614448
-65146.500000	-29498.220000	-10181.745000	1530.450000	-19178.730000	-40101.750000	5110.920000	-25110.045000	-3.702861	-3.040623	-1.925389	-1.756377	-1.419894	-2.102299	-5.836046	-4.992513	-2.075360	3.006220	-0.885080	-0.825071	-0.085327	0.545348	-1.000000	-1.000000	-1.000000	-1.000000	-1.000000	-1.000000	-1.000000	64.000000	0.000000	-1.000000	-1.000000	245697.000000	1775715515.618861
-65152.215000	-29504.115000	-10187.415000	1523.925000	-19185.255000	-40106.610000	5106.285000	-25117.020000	-3.810535	-3.889754	-3.151251	-3.188463	-2.265857	2.777862	-4.797981	-4.887041	-2.075360	3.006220	-0.885080	-0.825071	-0.085327	0.545348	-1.000000	-1.000000	-1.000000	-1.000000	-1.000000	-1.000000	-1.000000	64.000000	0.000000	-1.000000	-1.000000	245698.000000	1775715515.618882
-65153.340000	-29505.465000	-10188.090000	1521.450000	-19190.205000	-40113.180000	5103.945000	-25118.595000	-2.695960	-3.385515	-3.265680	-3.656186	-2.803820	5.297538	-2.580541	-3.514214	-2.075360	3.006220	-0.885080	-0.825071	-0.085327	0.545348	-1.000000	-1.000000	-1.000000	-1.000000	-1.000000	-1.000000	-1.000000	64.000000	0.000000	-1.000000	-1.000000	245699.000000	1775715515.623699
-65147.355000	-29499.705000	-10182.330000	1527.300000	-19184.760000	-40110.255000	5107.635000	-25113.555000	-0.777104	-1.592213	-1.904175	-2.627245	-2.422498	4.954791	-0.435091	-1.495454	-2.075360	3.006220	-0.885080	-0.825071	-0.085327	0.545348	-1.000000	-1.000000	-1.000000	-1.000000	-1.000000	-1.000000	-1.000000	64.000000	0.000000	-1.000000	-1.000000	245700.000000	1775715515.623726
-65149.065000	-29502.045000	-10185.120000	1525.365000	-19186.200000	-40112.955000	5105.970000	-25115.175000	1.587753	1.121198	0.707092	-0.073454	-0.642683	3.022189	1.241069	0.934959	-2.121140	2.670500	-0.900340	-0.826353	-0.086670	0.544554	-1.000000	-1.000000	-1.000000	-1.000000	-1.000000	-1.000000	-1.000000	64.000000	0.000000	-1.000000	-1.000000	245701.000000	1775715515.626797
-65147.580000	-29501.505000	-10185.525000	1525.095000	-19184.895000	-40110.840000	5108.220000	-25113.645000	3.641569	3.700132	3.359887	2.974928	2.090945	1.255696	2.425503	3.224625	-2.121140	2.670500	-0.900340	-0.826353	-0.086670	0.544554	-1.000000	-1.000000	-1.000000	-1.000000	-1.000000	-1.000000	-1.000000	64.000000	0.000000	-1.000000	-1.000000	245702.000000	1775715515.626812
-65141.325000	-29495.115000	-10178.820000	1531.350000	-19178.460000	-40106.205000	5112.360000	-25107.570000	4.502319	4.951934	4.675180	4.978198	4.487580	0.590388	3.042830	4.545449	-2.121140	2.670500	-0.900340	-0.826353	-0.086670	0.544554	-1.000000	-1.000000	-1.000000	-1.000000	-1.000000	-1.000000	-1.000000	64.000000	0.000000	-1.000000	-1.000000	245703.000000	1775715515.630785
-65145.465000	-29498.085000	-10180.935000	1530.135000	-19180.755000	-40112.100000	5105.970000	-25111.755000	3.931363	4.555563	4.335198	5.218776	5.489623	0.877421	2.972835	4.495992	-2.121140	2.670500	-0.900340	-0.826353	-0.086670	0.544554	-1.000000	-1.000000	-1.000000	-1.000000	-1.000000	-1.000000	-1.000000	64.000000	0.000000	-1.000000	-1.000000	245704.000000	1775715515.630805
-65141.820000	-29493.630000	-10176.615000	1533.960000	-19177.740000	-40111.560000	5107.680000	-25108.380000	2.154872	2.853059	2.788681	3.866135	4.641347	1.106226	1.971248	3.061204	-2.121140	2.670500	-0.900340	-0.826353	-0.086670	0.544554	-1.000000	-1.000000	-1.000000	-1.000000	-1.000000	-1.000000	-1.000000	64.000000	0.000000	-1.000000	-1.000000	245705.000000	1775715515.640754
-65144.205000	-29494.215000	-10176.525000	1533.330000	-19178.280000	-40114.350000	5104.035000	-25111.575000	-0.264468	0.495632	0.672110	1.509857	2.205385	0.477744	0.181103	0.652184	-2.121140	2.670500	-0.900340	-0.826353	-0.086670	0.544554	-1.000000	-1.000000	-1.000000	-1.000000	-1.000000	-1.000000	-1.000000	64.000000	0.000000	-1.000000	-1.000000	245706.000000	1775715515.640780
-65139.885000	-29489.580000	-10170.720000	1538.775000	-19174.590000	-40109.355000	5108.265000	-25108.020000	-2.394535	-1.634910	-1.246580	-0.965222	-0.766297	-0.675353	-1.536873	-1.799207	-2.121140	2.670500	-0.900340	-0.826353	-0.086670	0.544554	-1.000000	-1.000000	-1.000000	-1.000000	-1.000000	-1.000000	-1.000000	64.000000	0.000000	-1.000000	-1.000000	245707.000000	1775715515.654493
-65142.360000	-29493.180000	-10174.320000	1535.445000	-19177.335000	-40108.320000	5108.580000	-25110.270000	-3.439440	-2.906034	-2.418688	-2.744102	-3.084984	-1.363183	-2.215275	-3.331328	-2.121140	2.670500	-0.900340	-0.826353	-0.086670	0.544554	-1.000000	-1.000000	-1.000000	-1.000000	-1.000000	-1.000000	-1.000000	64.000000	0.000000	-1.000000	-1.000000	245708.000000	1775715515.654524
-65135.970000	-29488.365000	-10171.800000	1538.370000	-19173.960000	-40106.340000	5115.105000	-25104.105000	-3.165359	-3.227523	-2.862309	-3.534061	-4.122570	-1.063183	-1.493287	-3.445409	-2.121140	2.670500	-0.900340	-0.826353	-0.086670	0.544554	-1.000000	-1.000000	-1.000000	-1.000000	-1.000000	-1.000000	-1.000000	64.000000	0.000000	-1.000000	-1.000000	245709.000000	1775715515.654554
-65136.420000	-29488.365000	-10171.890000	1538.550000	-19172.790000	-40101.480000	5109.705000	-25105.995000	-1.853584	-2.744696	-2.812762	-3.426232	-3.807607	-0.112375	0.042406	-2.273794	-2.121140	2.670500	-0.900340	-0.826353	-0.086670	0.544554	-1.000000	-1.000000	-1.000000	-1.000000	-1.000000	-1.000000	-1.000000	64.000000	0.000000	-1.000000	-1.000000	245710.000000	1775715515.654566
-65141.415000	-29493.270000	-10176.030000	1536.165000	-19173.645000	-40099.095000	5103.495000	-25110.945000	-0.310315	-1.798196	-2.412004	-2.648741	-2.481694	0.854301	1.015898	-0.688069	-1.327620	2.380560	-0.442540	-0.827574	-0.087524	0.543944	-1.000000	-1.000000	-1.000000	-1.000000	-1.000000	-1.000000	-1.000000	64.000000	0.000000	-1.000000	-1.000000	245711.000000	1775715515.654581
-65137.680000	-29490.480000	-10173.645000	1538.055000	-19171.530000	-40099.230000	5108.265000	-25105.905000	0.506388	-0.959953	-1.818344	-1.582929	-0.847075	1.271354	0.527639	0.282565	-1.327620	2.380560	-0.442540	-0.827574	-0.087524	0.543944	-1.000000	-1.000000	-1.000000	-1.000000	-1.000000	-1.000000	-1.000000	64.000000	0.000000	-1.000000	-1.000000	245712.000000	1775715515.654592
-65127.465000	-29481.435000	-10166.715000	1544.040000	-19167.345000	-40101.930000	5118.255000	-25094.385000	0.678858	-0.225185	-0.892863	-0.391061	0.542734	0.706670	-0.472233	0.763066	-1.327620	2.380560	-0.442540	-0.827574	-0.087524	0.543944	-1.000000	-1.000000	-1.000000	-1.000000	-1.000000	-1.000000	-1.000000	64.000000	0.000000	-1.000000	-1.000000	245713.000000	1775715515.654625
-65132.820000	-29489.040000	-10173.780000	1536.165000	-19174.635000	-40106.790000	5117.175000	-25099.470000	1.027089	0.809315	0.522594	0.859061	1.396700	-0.855229	-0.367592	1.526602	-1.327620	2.380560	-0.442540	-0.827574	-0.087524	0.543944	-1.000000	-1.000000	-1.000000	-1.000000	-1.000000	-1.000000	-1.000000	64.000000	0.000000	-1.000000	-1.000000	245714.000000	1775715515.654636
-65139.165000	-29493.405000	-10176.840000	1533.780000	-19179.630000	-40113.630000	5115.600000	-25103.790000	1.278361	1.562899	1.662071	1.510420	1.236545	-2.866241	0.735670	2.080552	-1.327620	2.380560	-0.442540	-0.827574	-0.087524	0.543944	-1.000000	-1.000000	-1.000000	-1.000000	-1.000000	-1.000000	-1.000000	64.000000	0.000000	-1.000000	-1.000000	245715.000000	1775715515.656030
-65136.645000	-29488.590000	-10173.105000	1538.100000	-19177.965000	-40116.330000	5114.520000	-25101.855000	0.501201	1.192713	1.676324	1.121038	0.007644	-4.378749	1.314944	1.294790	-1.327620	2.380560	-0.442540	-0.827574	-0.087524	0.543944	-1.000000	-1.000000	-1.000000	-1.000000	-1.000000	-1.000000	-1.000000	64.000000	0.000000	-1.000000	-1.000000	245716.000000	1775715515.656047
-65137.905000	-29490.345000	-10175.400000	1537.245000	-19178.415000	-40117.095000	5115.690000	-25103.205000	-0.961693	0.207263	0.951956	0.417442	-1.210819	-4.378522	0.591290	-0.558418	-1.327620	2.380560	-0.442540	-0.827574	-0.087524	0.543944	-1.000000	-1.000000	-1.000000	-1.000000	-1.000000	-1.000000	-1.000000	64.000000	0.000000	-1.000000	-1.000000	245717.000000	1775715515.659614
-65142.405000	-29495.340000	-10180.260000	1533.645000	-19181.430000	-40126.365000	5113.575000	-25107.255000	-1.938602	-0.456288	0.245115	0.162722	-1.316635	-2.569794	-0.827016	-2.200564	-1.327620	2.380560	-0.442540	-0.827574	-0.087524	0.543944	-1.000000	-1.000000	-1.000000	-1.000000	-1.000000	-1.000000	-1.000000	64.000000	0.000000	-1.000000	-1.000000	245718.000000	1775715515.659638
-65142.855000	-29495.385000	-10179.495000	1534.005000	-19182.015000	-40137.930000	5109.885000	-25108.695000	-1.943433	-0.690369	-0.277571	0.208769	-0.376517	-0.050484	-2.008049	-2.851716	-1.327620	2.380560	-0.442540	-0.827574	-0.087524	0.543944	-1.000000	-1.000000	-1.000000	-1.000000	-1.000000	-1.000000	-1.000000	64.000000	0.000000	-1.000000	-1.000000	245719.000000	1775715515.662834
-65142.765000	-29495.430000	-10179.315000	1534.185000	-19180.665000	-40127.580000	5108.400000	-25108.830000	-1.123344	-0.623415	-0.504282	0.242814	0.879875	1.915898	-2.489186	-2.386290	-1.327620	2.380560	-0.442540	-0.827574	-0.087524	0.543944	-1.000000	-1.000000	-1.000000	-1.000000	-1.000000	-1.000000	-1.000000	64.000000	0.000000	-1.000000	-1.000000	245720.000000	1775715515.662856
-65142.585000	-29494.665000	-10177.200000	1536.120000	-19178.010000	-40108.320000	5109.930000	-25108.290000	0.234323	-0.145568	-0.162894	0.337078	1.947382	3.854217	-2.097777	-0.974452	-1.022420	2.227960	-0.396760	-0.827696	-0.089599	0.544249	-1.000000	-1.000000	-1.000000	-1.000000	-1.000000	-1.000000	-1.000000	64.000000	0.000000	-1.000000	-1.000000	245721.000000	1775715515.672817
-65136.600000	-29486.520000	-10168.065000	1543.995000	-19169.055000	-40087.305000	5114.340000	-25102.620000	1.760747	0.824769	0.837962	0.740224	2.737718	7.084720	-0.724413	0.995916	-1.022420	2.227960	-0.396760	-0.827696	-0.089599	0.544249	-1.000000	-1.000000	-1.000000	-1.000000	-1.000000	-1.000000	-1.000000	64.000000	0.000000	-1.000000	-1.000000	245722.000000	1775715515.672843
-65135.295000	-29484.630000	-10165.500000	1547.010000	-19164.690000	-40086.045000	5115.645000	-25102.440000	3.064084	2.139473	2.252445	1.547725	3.306234	10.674031	1.360283	2.934516	-1.022420	2.227960	-0.396760	-0.827696	-0.089599	0.544249	-1.000000	-1.000000	-1.000000	-1.000000	-1.000000	-1.000000	-1.000000	64.000000	0.000000	-1.000000	-1.000000	245723.000000	1775715515.672867
-65136.330000	-29486.250000	-10167.570000	1545.660000	-19166.445000	-40094.865000	5114.430000	-25104.375000	3.588492	3.080906	3.196851	2.226038	3.272896	10.963585	3.196861	3.969813	-1.022420	2.227960	-0.396760	-0.827696	-0.089599	0.544249	-1.000000	-1.000000	-1.000000	-1.000000	-1.000000	-1.000000	-1.000000	64.000000	0.000000	-1.000000	-1.000000	245724.000000	1775715515.672879
-65135.880000	-29486.520000	-10169.640000	1542.600000	-19170.720000	-40104.270000	5113.530000	-25103.115000	2.771782	2.633216	2.500149	1.760439	1.816176	5.102475	3.639384	3.373907	-1.022420	2.227960	-0.396760	-0.827696	-0.089599	0.544249	-1.000000	-1.000000	-1.000000	-1.000000	-1.000000	-1.000000	-1.000000	64.000000	0.000000	-1.000000	-1.000000	245725.000000	1775715515.675357
-65137.905000	-29490.750000	-10174.995000	1536.210000	-19178.505000	-40112.280000	5110.155000	-25104.465000	0.722791	0.571997	-0.068653	-0.294729	-1.310259	-5.335714	2.311862	1.372507	-1.022420	2.227960	-0.396760	-0.827696	-0.089599	0.544249	-1.000000	-1.000000	-1.000000	-1.000000	-1.000000	-1.000000	-1.000000	64.000000	0.000000	-1.000000	-1.000000	245726.000000	1775715515.675382
-65137.590000	-29491.425000	-10175.940000	1534.860000	-19178.415000	-40114.845000	5110.875000	-25103.880000	-1.673610	-2.186528	-3.337986	-3.140864	-4.970170	-14.956047	-0.062540	-0.976359	-1.022420	2.227960	-0.396760	-0.827696	-0.089599	0.544249	-1.000000	-1.000000	-1.000000	-1.000000	-1.000000	-1.000000	-1.000000	64.000000	0.000000	-1.000000	-1.000000	245727.000000	1775715515.681007
-65138.355000	-29490.210000	-10173.375000	1537.785000	-19175.490000	-40112.685000	5111.460000	-25105.455000	-3.340876	-4.175158	-5.422160	-5.041538	-7.011167	-18.432830	-2.128233	-2.628280	-1.022420	2.227960	-0.396760	-0.827696	-0.089599	0.544249	-1.000000	-1.000000	-1.000000	-1.000000	-1.000000	-1.000000	-1.000000	64.000000	0.000000	-1.000000	-1.000000	245728.000000	1775715515.681036
-65137.545000	-29486.565000	-10169.415000	1542.375000	-19170.630000	-40103.595000	5111.460000	-25105.095000	-3.616630	-4.210478	-4.901083	-4.457450	-5.784812	-13.836975	-2.814628	-3.089725	-1.022420	2.227960	-0.396760	-0.827696	-0.089599	0.544249	-1.000000	-1.000000	-1.000000	-1.000000	-1.000000	-1.000000	-1.000000	64.000000	0.000000	-1.000000	-1.000000	245729.000000	1775715515.683527
-65143.350000	-29491.380000	-10171.575000	1542.375000	-19170.855000	-40100.220000	5108.130000	-25109.505000	-2.651111	-2.309341	-1.974830	-1.416399	-1.693127	-3.497185	-2.109999	-2.519246	-1.022420	2.227960	-0.396760	-0.827696	-0.089599	0.544249	-1.000000	-1.000000	-1.000000	-1.000000	-1.000000	-1.000000	-1.000000	64.000000	0.000000	-1.000000	-1.000000	245730.000000	1775715515.683545
-65143.890000	-29492.910000	-10172.970000	1540.260000	-19172.790000	-40102.830000	5108.760000	-25109.280000	-1.254369	0.149442	1.497843	2.238197	2.877150	7.330074	-0.843395	-1.476390	0.381500	2.289000	0.167860	-0.827451	-0.092163	0.543578	-1.000000	-1.000000	-1.000000	-1.000000	-1.000000	-1.000000	-1.000000	64.000000	0.000000	-1.000000	-1.000000	245731.000000	1775715515.688888
-65141.190000	-29490.255000	-10171.080000	1541.880000	-19169.730000	-40101.930000	5110.425000	-25107.120000	-0.015025	1.755755	3.569346	4.336516	5.443616	13.475207	0.287093	-0.347085	0.381500	2.289000	0.167860	-0.827451	-0.092163	0.543578	-1.000000	-1.000000	-1.000000	-1.000000	-1.000000	-1.000000	-1.000000	64.000000	0.000000	-1.000000	-1.000000	245732.000000	1775715515.688913
-65138.445000	-29486.925000	-10168.470000	1545.885000	-19165.455000	-40101.705000	5112.630000	-25103.205000	1.160178	2.327128	3.732778	4.181052	5.326390	12.988799	1.149426	0.896020	0.381500	2.289000	0.167860	-0.827451	-0.092163	0.543578	-1.000000	-1.000000	-1.000000	-1.000000	-1.000000	-1.000000	-1.000000	64.000000	0.000000	-1.000000	-1.000000	245733.000000	1775715515.690934
-65141.865000	-29493.180000	-10176.345000	1537.920000	-19175.040000	-40109.265000	5110.245000	-25106.040000	2.275334	2.275517	2.557404	2.481517	3.340888	7.532844	1.698770	2.120520	0.381500	2.289000	0.167860	-0.827451	-0.092163	0.543578	-1.000000	-1.000000	-1.000000	-1.000000	-1.000000	-1.000000	-1.000000	64.000000	0.000000	-1.000000	-1.000000	245734.000000	1775715515.690956
-65147.355000	-29499.840000	-10183.320000	1530.180000	-19183.275000	-40108.860000	5108.220000	-25111.395000	2.635789	1.473008	0.488752	-0.052333	0.236670	0.372965	1.613338	2.572330	0.381500	2.289000	0.167860	-0.827451	-0.092163	0.543578	-1.000000	-1.000000	-1.000000	-1.000000	-1.000000	-1.000000	-1.000000	64.000000	0.000000	-1.000000	-1.000000	245735.000000	1775715515.696737
-65142.765000	-29494.170000	-10176.345000	1535.850000	-19178.145000	-40103.505000	5117.130000	-25107.030000	1.746192	-0.099442	-1.823271	-2.679076	-3.090562	-5.167564	0.895313	1.699424	0.381500	2.289000	0.167860	-0.827451	-0.092163	0.543578	-1.000000	-1.000000	-1.000000	-1.000000	-1.000000	-1.000000	-1.000000	64.000000	0.000000	-1.000000	-1.000000	245736.000000	1775715515.696761
-65144.250000	-29494.305000	-10176.075000	1535.670000	-19178.955000	-40106.340000	5116.275000	-25108.020000	0.289628	-1.375511	-2.911980	-3.933440	-4.858139	-6.934679	0.256634	0.155054	0.381500	2.289000	0.167860	-0.827451	-0.092163	0.543578	-1.000000	-1.000000	-1.000000	-1.000000	-1.000000	-1.000000	-1.000000	64.000000	0.000000	-1.000000	-1.000000	245737.000000	1775715515.698778
-65144.160000	-29494.080000	-10175.400000	1537.110000	-19177.605000	-40103.865000	5116.545000	-25106.895000	-0.688528	-1.323419	-1.906675	-2.859780	-3.869875	-5.160392	0.091018	-0.924902	0.381500	2.289000	0.167860	-0.827451	-0.092163	0.543578	-1.000000	-1.000000	-1.000000	-1.000000	-1.000000	-1.000000	-1.000000	64.000000	0.000000	-1.000000	-1.000000	245738.000000	1775715515.698794
-65143.710000	-29494.035000	-10174.680000	1537.785000	-19177.020000	-40105.305000	5115.285000	-25107.390000	-0.885588	-0.226538	0.310945	-0.231447	-0.887928	-1.840745	-0.068346	-1.123458	0.381500	2.289000	0.167860	-0.827451	-0.092163	0.543578	-1.000000	-1.000000	-1.000000	-1.000000	-1.000000	-1.000000	-1.000000	64.000000	0.000000	-1.000000	-1.000000	245739.000000	1775715515.708274
-65146.590000	-29498.400000	-10180.080000	1533.780000	-19180.305000	-40111.290000	5111.100000	-25110.720000	-0.622259	0.827272	2.056949	2.198280	2.159089	0.898744	-0.710869	-0.801748	0.381500	2.289000	0.167860	-0.827451	-0.092163	0.543578	-1.000000	-1.000000	-1.000000	-1.000000	-1.000000	-1.000000	-1.000000	64.000000	0.000000	-1.000000	-1.000000	245740.000000	1775715515.708302
-65142.360000	-29494.845000	-10177.695000	1536.480000	-19177.020000	-40105.215000	5113.260000	-25107.660000	-0.290962	1.059137	2.246631	3.085024	3.679905	1.946494	-1.691452	-0.477757	0.305200	2.395820	0.366240	-0.826719	-0.091919	0.543578	-1.000000	-1.000000	-1.000000	-1.000000	-1.000000	-1.000000	-1.000000	64.000000	0.000000	-1.000000	-1.000000	245741.000000	1775715515.708329
-65137.500000	-29489.265000	-10173.825000	1539.180000	-19175.085000	-40104.180000	5118.660000	-25103.610000	0.118147	0.720313	1.206920	2.424237	3.420537	1.759463	-2.170353	-0.163414	0.305200	2.395820	0.366240	-0.826719	-0.091919	0.543578	-1.000000	-1.000000	-1.000000	-1.000000	-1.000000	-1.000000	-1.000000	64.000000	0.000000	-1.000000	-1.000000	245742.000000	1775715515.708341
-65137.860000	-29489.580000	-10173.555000	1539.585000	-19174.590000	-40104.090000	5119.380000	-25103.970000	0.756935	0.582598	0.149365	1.192581	2.168194	1.385946	-1.364641	0.410292	0.305200	2.395820	0.366240	-0.826719	-0.091919	0.543578	-1.000000	-1.000000	-1.000000	-1.000000	-1.000000	-1.000000	-1.000000	64.000000	0.000000	-1.000000	-1.000000	245743.000000	1775715515.710964
-65140.380000	-29492.190000	-10177.290000	1535.895000	-19177.605000	-40105.530000	5117.895000	-25106.040000	1.178682	0.652508	-0.357823	0.056717	0.622249	1.092627	0.332839	0.961779	0.305200	2.395820	0.366240	-0.826719	-0.091919	0.543578	-1.000000	-1.000000	-1.000000	-1.000000	-1.000000	-1.000000	-1.000000	64.000000	0.000000	-1.000000	-1.000000	245744.000000	1775715515.710983
-65143.080000	-29492.730000	-10177.335000	1536.705000	-19177.650000	-40109.670000	5119.245000	-25108.380000	0.660478	0.258670	-0.695761	-0.959250	-0.938355	0.506318	1.648779	0.822943	0.305200	2.395820	0.366240	-0.826719	-0.091919	0.543578	-1.000000	-1.000000	-1.000000	-1.000000	-1.000000	-1.000000	-1.000000	64.000000	0.000000	-1.000000	-1.000000	245745.000000	1775715515.723354
-65143.260000	-29491.065000	-10175.490000	1538.460000	-19177.065000	-40111.245000	5117.715000	-25109.550000	-0.765415	-0.717815	-1.098156	-1.721737	-2.169593	-0.555997	1.784963	-0.148554	0.305200	2.395820	0.366240	-0.826719	-0.091919	0.543578	-1.000000	-1.000000	-1.000000	-1.000000	-1.000000	-1.000000	-1.000000	64.000000	0.000000	-1.000000	-1.000000	245746.000000	1775715515.723394
-65141.505000	-29489.040000	-10172.565000	1541.565000	-19174.905000	-40109.130000	5117.310000	-25109.640000	-2.117342	-1.551223	-1.169880	-1.765101	-2.544714	-1.610940	0.895993	-1.304095	0.305200	2.395820	0.366240	-0.826719	-0.091919	0.543578	-1.000000	-1.000000	-1.000000	-1.000000	-1.000000	-1.000000	-1.000000	64.000000	0.000000	-1.000000	-1.000000	245747.000000	1775715515.723424
-65141.595000	-29490.480000	-10173.420000	1540.845000	-19175.355000	-40111.785000	5117.220000	-25108.335000	-2.358213	-1.595778	-0.607885	-0.958418	-1.866879	-1.871860	-0.336037	-1.773474	0.305200	2.395820	0.366240	-0.826719	-0.091919	0.543578	-1.000000	-1.000000	-1.000000	-1.000000	-1.000000	-1.000000	-1.000000	64.000000	0.000000	-1.000000	-1.000000	245748.000000	1775715515.723436
-65141.145000	-29491.740000	-10177.155000	1536.255000	-19180.035000	-40118.355000	5115.465000	-25108.020000	-1.341354	-1.005865	0.148043	0.039546	-0.684274	-1.274892	-1.215469	-1.175512	0.305200	2.395820	0.366240	-0.826719	-0.091919	0.543578	-1.000000	-1.000000	-1.000000	-1.000000	-1.000000	-1.000000	-1.000000	64.000000	0.000000	-1.000000	-1.000000	245749.000000	1775715515.728307
-65141.640000	-29495.430000	-10181.295000	1530.000000	-19187.730000	-40129.785000	5110.020000	-25109.145000	0.199530	-0.429153	0.292815	0.246061	-0.016349	-0.719944	-1.512946	0.086908	0.305200	2.395820	0.366240	-0.826719	-0.091919	0.543578	-1.000000	-1.000000	-1.000000	-1.000000	-1.000000	-1.000000	-1.000000	64.000000	0.000000	-1.000000	-1.000000	245750.000000	1775715515.728329
-65137.095000	-29489.805000	-10175.490000	1536.480000	-19182.915000	-40132.890000	5109.570000	-25106.130000	1.453598	-0.159537	-0.265538	-0.465186	-0.267593	-0.925593	-1.437498	1.235273	-0.701960	2.227960	0.961380	-0.827146	-0.090881	0.544493	-1.000000	-1.000000	-1.000000	-1.000000	-1.000000	-1.000000	-1.000000	64.000000	0.000000	-1.000000	-1.000000	245751.000000	1775715515.730568
-65140.155000	-29491.380000	-10176.480000	1534.410000	-19185.165000	-40139.145000	5108.985000	-25108.920000	2.035398	0.143851	-0.643624	-1.006618	-0.610190	-1.425461	-1.056168	1.745988	-0.701960	2.227960	0.961380	-0.827146	-0.090881	0.544493	-1.000000	-1.000000	-1.000000	-1.000000	-1.000000	-1.000000	-1.000000	64.000000	0.000000	-1.000000	-1.000000	245752.000000	1775715515.730586
-65136.105000	-29488.455000	-10173.600000	1536.480000	-19184.400000	-40131.990000	5114.745000	-25103.790000	1.855404	0.742503	-0.169346	-0.490036	-0.139510	-1.020775	-0.118370	1.547600	-0.701960	2.227960	0.961380	-0.827146	-0.090881	0.544493	-1.000000	-1.000000	-1.000000	-1.000000	-1.000000	-1.000000	-1.000000	64.000000	0.000000	-1.000000	-1.000000	245753.000000	1775715515.730610
-65144.700000	-29497.320000	-10182.420000	1531.170000	-19183.455000	-40110.030000	5121.270000	-25108.065000	0.955822	1.207847	0.682439	0.669954	1.022817	1.389955	1.535017	0.891788	-0.701960	2.227960	0.961380	-0.827146	-0.090881	0.544493	-1.000000	-1.000000	-1.000000	-1.000000	-1.000000	-1.000000	-1.000000	64.000000	0.000000	-1.000000	-1.000000	245754.000000	1775715515.730617
-65150.640000	-29501.910000	-10185.390000	1530.630000	-19179.360000	-40104.315000	5127.210000	-25111.665000	-0.614821	0.768274	0.816591	1.406718	2.214747	5.772535	3.509705	-0.053596	-0.701960	2.227960	0.961380	-0.827146	-0.090881	0.544493	-1.000000	-1.000000	-1.000000	-1.000000	-1.000000	-1.000000	-1.000000	64.000000	0.000000	-1.000000	-1.000000	245755.000000	1775715515.738665
-65152.440000	-29504.070000	-10187.325000	1527.705000	-19185.480000	-40129.290000	5119.605000	-25114.815000	-2.485342	-0.652013	-0.123197	1.172506	2.773455	9.181757	4.587555	-1.259907	-0.701960	2.227960	0.961380	-0.827146	-0.090881	0.544493	-1.000000	-1.000000	-1.000000	-1.000000	-1.000000	-1.000000	-1.000000	64.000000	0.000000	-1.000000	-1.000000	245756.000000	1775715515.738695
-65152.125000	-29502.855000	-10185.840000	1528.245000	-19187.415000	-40133.205000	5113.260000	-25116.480000	-3.543454	-1.940028	-1.199966	0.329721	2.093870	7.301125	3.279765	-2.330045	-0.701960	2.227960	0.961380	-0.827146	-0.090881	0.544493	-1.000000	-1.000000	-1.000000	-1.000000	-1.000000	-1.000000	-1.000000	64.000000	0.000000	-1.000000	-1.000000	245757.000000	1775715515.749730
-65149.875000	-29498.985000	-10181.790000	1531.530000	-19184.265000	-40117.995000	5113.215000	-25115.670000	-2.726158	-1.769869	-1.174643	-0.291234	0.299498	0.232412	-0.465268	-2.545658	-0.701960	2.227960	0.961380	-0.827146	-0.090881	0.544493	-1.000000	-1.000000	-1.000000	-1.000000	-1.000000	-1.000000	-1.000000	64.000000	0.000000	-1.000000	-1.000000	245758.000000	1775715515.749757
-65147.670000	-29495.880000	-10178.865000	1534.815000	-19179.630000	-40098.690000	5116.365000	-25114.140000	-0.138194	0.125215	0.291512	-0.057496	-1.350225	-6.188622	-4.422486	-1.491629	-0.701960	2.227960	0.961380	-0.827146	-0.090881	0.544493	-1.000000	-1.000000	-1.000000	-1.000000	-1.000000	-1.000000	-1.000000	64.000000	0.000000	-1.000000	-1.000000	245759.000000	1775715515.749782
-65145.600000	-29494.620000	-10178.055000	1534.815000	-19179.945000	-40101.075000	5116.005000	-25113.195000	2.932794	2.664641	2.313967	0.885741	-1.686836	-7.004366	-5.944305	0.502311	-0.701960	2.227960	0.961380	-0.827146	-0.090881	0.544493	-1.000000	-1.000000	-1.000000	-1.000000	-1.000000	-1.000000	-1.000000	64.000000	0.000000	-1.000000	-1.000000	245760.000000	1775715515.749791
-65142.810000	-29493.945000	-10179.585000	1532.385000	-19183.995000	-40112.190000	5114.160000	-25110.315000	4.925987	4.205127	3.420179	1.596643	-0.978043	-3.568344	-4.397716	2.502036	-1.342880	1.953280	1.419180	-0.826963	-0.090454	0.544249	-1.000000	-1.000000	-1.000000	-1.000000	-1.000000	-1.000000	-1.000000	64.000000	0.000000	-1.000000	-1.000000	245761.000000	1775715515.749799
-65144.520000	-29497.680000	-10184.445000	1527.390000	-19189.530000	-40120.785000	5110.245000	-25112.250000	4.912855	3.683030	2.621609	1.123882	-0.497407	-0.908201	-1.335149	3.539979	-1.342880	1.953280	1.419180	-0.826963	-0.090454	0.544249	-1.000000	-1.000000	-1.000000	-1.000000	-1.000000	-1.000000	-1.000000	64.000000	0.000000	-1.000000	-1.000000	245762.000000	1775715515.749805
-65139.930000	-29494.305000	-10180.440000	1531.260000	-19184.130000	-40114.800000	5113.935000	-25110.225000	2.990979	1.307569	0.228512	-0.486619	-0.851046	-1.452927	1.322157	3.116478	-1.342880	1.953280	1.419180	-0.826963	-0.090454	0.544249	-1.000000	-1.000000	-1.000000	-1.000000	-1.000000	-1.000000	-1.000000	64.000000	0.000000	-1.000000	-1.000000	245763.000000	1775715515.758473
-65139.795000	-29494.395000	-10180.620000	1530.630000	-19184.085000	-40114.665000	5112.540000	-25113.105000	0.208714	-1.527476	-2.210630	-2.032333	-1.244656	-3.179840	2.766436	1.454403	-1.342880	1.953280	1.419180	-0.826963	-0.090454	0.544249	-1.000000	-1.000000	-1.000000	-1.000000	-1.000000	-1.000000	-1.000000	64.000000	0.000000	-1.000000	-1.000000	245764.000000	1775715515.758503
-65152.980000	-29503.125000	-10187.280000	1525.635000	-19190.610000	-40118.040000	5111.280000	-25120.845000	-2.425586	-3.478578	-3.361781	-2.469463	-0.899059	-3.269573	3.057823	-0.819330	-1.342880	1.953280	1.419180	-0.826963	-0.090454	0.544249	-1.000000	-1.000000	-1.000000	-1.000000	-1.000000	-1.000000	-1.000000	64.000000	0.000000	-1.000000	-1.000000	245765.000000	1775715515.760794
-65157.975000	-29507.895000	-10191.465000	1523.520000	-19192.320000	-40119.930000	5110.335000	-25122.555000	-4.713140	-4.343524	-3.293512	-1.961622	-0.239260	-1.331578	2.405389	-3.053085	-1.342880	1.953280	1.419180	-0.826963	-0.090454	0.544249	-1.000000	-1.000000	-1.000000	-1.000000	-1.000000	-1.000000	-1.000000	64.000000	0.000000	-1.000000	-1.000000	245766.000000	1775715515.760812
-65155.950000	-29506.500000	-10190.610000	1524.195000	-19191.330000	-40119.930000	5109.975000	-25121.835000	-6.179692	-4.289533	-2.613173	-1.113681	0.135149	1.251413	1.181005	-4.323780	-1.342880	1.953280	1.419180	-0.826963	-0.090454	0.544249	-1.000000	-1.000000	-1.000000	-1.000000	-1.000000	-1.000000	-1.000000	64.000000	0.000000	-1.000000	-1.000000	245767.000000	1775715515.760835
-65150.730000	-29500.065000	-10184.400000	1529.820000	-19186.020000	-40116.825000	5111.100000	-25118.820000	-5.459295	-2.882057	-1.275275	-0.000351	0.494469	3.264875	-0.022736	-3.674135	-1.342880	1.953280	1.419180	-0.826963	-0.090454	0.544249	-1.000000	-1.000000	-1.000000	-1.000000	-1.000000	-1.000000	-1.000000	64.000000	0.000000	-1.000000	-1.000000	245768.000000	1775715515.760848
-65150.145000	-29497.545000	-10180.935000	1533.510000	-19182.555000	-40114.620000	5110.155000	-25119.045000	-1.985049	0.128729	0.979569	1.547604	1.365171	4.304803	-0.720321	-1.137418	-1.342880	1.953280	1.419180	-0.826963	-0.090454	0.544249	-1.000000	-1.000000	-1.000000	-1.000000	-1.000000	-1.000000	-1.000000	64.000000	0.000000	-1.000000	-1.000000	245769.000000	1775715515.772156
-65146.860000	-29493.630000	-10175.580000	1537.290000	-19178.325000	-40110.030000	5111.955000	-25117.155000	2.735575	3.703914	3.588877	3.174113	2.578732	4.411879	-0.812699	1.977710	-1.342880	1.953280	1.419180	-0.826963	-0.090454	0.544249	-1.000000	-1.000000	-1.000000	-1.000000	-1.000000	-1.000000	-1.000000	64.000000	0.000000	-1.000000	-1.000000	245770.000000	1775715515.772182
-65149.830000	-29497.680000	-10179.675000	1533.420000	-19183.140000	-40118.670000	5111.055000	-25119.540000	6.173181	5.913390	5.149523	3.877399	3.175513	3.514553	-0.516831	4.013207	-1.693860	1.968540	1.983800	-0.827207	-0.089050	0.543822	-1.000000	-1.000000	-1.000000	-1.000000	-1.000000	-1.000000	-1.000000	64.000000	0.000000	-1.000000	-1.000000	245771.000000	1775715515.772209
-65150.730000	-29498.040000	-10180.620000	1533.060000	-19183.950000	-40116.735000	5113.620000	-25118.910000	6.595732	5.353314	4.398253	2.772394	2.173857	1.416305	-0.124469	4.049865	-1.693860	1.968540	1.983800	-0.827207	-0.089050	0.543822	-1.000000	-1.000000	-1.000000	-1.000000	-1.000000	-1.000000	-1.000000	64.000000	0.000000	-1.000000	-1.000000	245772.000000	1775715515.772221
-65145.555000	-29493.180000	-10176.120000	1537.740000	-19178.685000	-40110.120000	5118.390000	-25114.410000	4.187151	2.393328	1.501474	0.200262	-0.210466	-1.208028	0.258349	2.453018	-1.693860	1.968540	1.983800	-0.827207	-0.089050	0.543822	-1.000000	-1.000000	-1.000000	-1.000000	-1.000000	-1.000000	-1.000000	64.000000	0.000000	-1.000000	-1.000000	245773.000000	1775715515.773285
-65143.440000	-29494.575000	-10179.630000	1533.960000	-19180.800000	-40109.445000	5117.535000	-25113.375000	0.814068	-1.045633	-1.846005	-2.339543	-2.476065	-2.791115	0.642476	0.491601	-1.693860	1.968540	1.983800	-0.827207	-0.089050	0.543822	-1.000000	-1.000000	-1.000000	-1.000000	-1.000000	-1.000000	-1.000000	64.000000	0.000000	-1.000000	-1.000000	245774.000000	1775715515.773304
-65143.485000	-29498.040000	-10185.480000	1527.570000	-19185.930000	-40108.320000	5115.735000	-25113.645000	-1.689218	-3.342179	-4.134846	-3.800429	-3.525951	-2.634607	0.721779	-0.875974	-1.693860	1.968540	1.983800	-0.827207	-0.089050	0.543822	-1.000000	-1.000000	-1.000000	-1.000000	-1.000000	-1.000000	-1.000000	64.000000	0.000000	-1.000000	-1.000000	245775.000000	1775715515.774822
-65151.585000	-29503.845000	-10189.980000	1522.755000	-19191.150000	-40110.840000	5113.845000	-25118.730000	-2.954633	-4.271065	-5.059365	-4.268658	-3.576352	-1.561671	0.073117	-1.676912	-1.693860	1.968540	1.983800	-0.827207	-0.089050	0.543822	-1.000000	-1.000000	-1.000000	-1.000000	-1.000000	-1.000000	-1.000000	64.000000	0.000000	-1.000000	-1.000000	245776.000000	1775715515.774837
-65149.785000	-29499.930000	-10185.255000	1527.705000	-19188.090000	-40116.915000	5114.205000	-25118.325000	-3.575995	-4.150475	-4.634431	-3.841254	-3.062140	-0.846559	-1.120004	-2.321552	-1.693860	1.968540	1.983800	-0.827207	-0.089050	0.543822	-1.000000	-1.000000	-1.000000	-1.000000	-1.000000	-1.000000	-1.000000	64.000000	0.000000	-1.000000	-1.000000	245777.000000	1775715515.787866
-65143.530000	-29495.025000	-10180.755000	1531.395000	-19184.490000	-40126.545000	5116.680000	-25115.175000	-3.551772	-2.836491	-2.571306	-2.053351	-1.732217	-1.242170	-2.008557	-2.656373	-1.693860	1.968540	1.983800	-0.827207	-0.089050	0.543822	-1.000000	-1.000000	-1.000000	-1.000000	-1.000000	-1.000000	-1.000000	64.000000	0.000000	-1.000000	-1.000000	245778.000000	1775715515.787890
-65148.120000	-29498.580000	-10183.185000	1528.830000	-19187.820000	-40131.180000	5112.045000	-25119.315000	-2.340072	-0.343539	0.793567	0.970217	0.521904	-2.495572	-1.927422	-2.167319	-1.693860	1.968540	1.983800	-0.827207	-0.089050	0.543822	-1.000000	-1.000000	-1.000000	-1.000000	-1.000000	-1.000000	-1.000000	64.000000	0.000000	-1.000000	-1.000000	245779.000000	1775715515.787917
-65151.900000	-29499.570000	-10184.085000	1528.470000	-19187.415000	-40120.200000	5109.435000	-25121.745000	-0.412868	2.173411	3.829717	3.752710	2.741706	-3.130235	-1.146366	-1.023359	-1.693860	1.968540	1.983800	-0.827207	-0.089050	0.543822	-1.000000	-1.000000	-1.000000	-1.000000	-1.000000	-1.000000	-1.000000	64.000000	0.000000	-1.000000	-1.000000	245780.000000	1775715515.787929
-65150.865000	-29500.065000	-10185.840000	1526.400000	-19189.755000	-40118.130000	5109.660000	-25120.170000	0.988374	3.299164	4.851092	4.702849	3.696225	-1.427099	-0.348802	0.092977	-1.541260	1.846460	1.541260	-0.827390	-0.088379	0.543517	-1.000000	-1.000000	-1.000000	-1.000000	-1.000000	-1.000000	-1.000000	64.000000	0.000000	-1.000000	-1.000000	245781.000000	1775715515.787943
-65151.000000	-29502.225000	-10188.405000	1524.555000	-19191.015000	-40115.655000	5113.710000	-25118.730000	1.447824	2.726464	3.556695	3.502331	3.028208	2.416285	0.356269	0.949259	-1.541260	1.846460	1.541260	-0.827390	-0.088379	0.543517	-1.000000	-1.000000	-1.000000	-1.000000	-1.000000	-1.000000	-1.000000	64.000000	0.000000	-1.000000	-1.000000	245782.000000	1775715515.787954
-65151.270000	-29501.280000	-10186.515000	1527.795000	-19185.840000	-40109.625000	5116.500000	-25118.550000	1.414769	1.190872	1.022402	1.146321	1.427242	6.083111	1.296611	1.659049	-1.541260	1.846460	1.541260	-0.827390	-0.088379	0.543517	-1.000000	-1.000000	-1.000000	-1.000000	-1.000000	-1.000000	-1.000000	64.000000	0.000000	-1.000000	-1.000000	245783.000000	1775715515.793411
-65156.445000	-29506.320000	-10191.240000	1523.340000	-19189.755000	-40112.055000	5113.800000	-25122.420000	1.190164	-0.354660	-1.260885	-0.947180	-0.003696	7.326939	2.314577	2.020175	-1.541260	1.846460	1.541260	-0.827390	-0.088379	0.543517	-1.000000	-1.000000	-1.000000	-1.000000	-1.000000	-1.000000	-1.000000	64.000000	0.000000	-1.000000	-1.000000	245784.000000	1775715515.793436
-65150.460000	-29500.020000	-10184.850000	1528.515000	-19187.010000	-40116.780000	5113.530000	-25118.190000	0.806464	-1.244371	-2.310040	-1.936428	-0.736369	5.300903	2.601068	1.707959	-1.541260	1.846460	1.541260	-0.827390	-0.088379	0.543517	-1.000000	-1.000000	-1.000000	-1.000000	-1.000000	-1.000000	-1.000000	64.000000	0.000000	-1.000000	-1.000000	245785.000000	1775715515.794926
-65146.455000	-29494.530000	-10178.460000	1535.355000	-19180.575000	-40111.290000	5114.880000	-25117.335000	0.630545	-1.001391	-1.740387	-1.586286	-0.786442	0.874066	1.704880	0.955667	-1.541260	1.846460	1.541260	-0.827390	-0.088379	0.543517	-1.000000	-1.000000	-1.000000	-1.000000	-1.000000	-1.000000	-1.000000	64.000000	0.000000	-1.000000	-1.000000	245786.000000	1775715515.794946
-65143.575000	-29490.705000	-10174.770000	1537.920000	-19178.190000	-40109.220000	5117.130000	-25114.770000	1.053133	0.418165	0.189878	-0.091935	-0.187107	-3.516451	0.196918	0.338559	-1.541260	1.846460	1.541260	-0.827390	-0.088379	0.543517	-1.000000	-1.000000	-1.000000	-1.000000	-1.000000	-1.000000	-1.000000	64.000000	0.000000	-1.000000	-1.000000	245787.000000	1775715515.804289
-65148.255000	-29498.355000	-10184.580000	1527.255000	-19188.405000	-40118.625000	5113.620000	-25116.795000	1.574776	1.925076	2.056500	1.354078	0.452173	-5.792324	-1.052334	0.014532	-1.541260	1.846460	1.541260	-0.827390	-0.088379	0.543517	-1.000000	-1.000000	-1.000000	-1.000000	-1.000000	-1.000000	-1.000000	64.000000	0.000000	-1.000000	-1.000000	245788.000000	1775715515.804312
-65145.555000	-29496.645000	-10184.355000	1527.525000	-19188.315000	-40118.580000	5117.625000	-25113.105000	1.214006	1.939906	2.027819	1.127593	-0.001617	-5.879901	-1.672163	-0.257149	-1.541260	1.846460	1.541260	-0.827390	-0.088379	0.543517	-1.000000	-1.000000	-1.000000	-1.000000	-1.000000	-1.000000	-1.000000	64.000000	0.000000	-1.000000	-1.000000	245789.000000	1775715515.804334
-65148.165000	-29498.895000	-10186.605000	1525.185000	-19192.005000	-40123.080000	5111.730000	-25118.415000	-0.195127	0.187177	-0.101848	-0.852988	-1.625690	-4.660615	-1.717487	-0.657804	-1.541260	1.846460	1.541260	-0.827390	-0.088379	0.543517	-1.000000	-1.000000	-1.000000	-1.000000	-1.000000	-1.000000	-1.000000	64.000000	0.000000	-1.000000	-1.000000	245790.000000	1775715515.804343
-65151.090000	-29500.245000	-10186.200000	1527.570000	-19190.385000	-40132.935000	5109.120000	-25122.600000	-1.912250	-2.054073	-2.609693	-2.855554	-3.071595	-2.861883	-1.527025	-1.307403	-1.449700	1.678600	2.044840	-0.828428	-0.088867	0.543089	-1.000000	-1.000000	-1.000000	-1.000000	-1.000000	-1.000000	-1.000000	64.000000	0.000000	-1.000000	-1.000000	245791.000000	1775715515.808939
-65149.740000	-29497.590000	-10182.690000	1532.115000	-19186.515000	-40141.530000	5109.930000	-25121.520000	-3.079701	-3.310573	-3.606851	-3.123363	-2.942859	-1.236278	-1.372411	-2.098464	-1.449700	1.678600	2.044840	-0.828428	-0.088867	0.543089	-1.000000	-1.000000	-1.000000	-1.000000	-1.000000	-1.000000	-1.000000	64.000000	0.000000	-1.000000	-1.000000	245792.000000	1775715515.808967
-65145.105000	-29491.605000	-10175.985000	1537.605000	-19182.105000	-40138.605000	5110.740000	-25117.425000	-2.984521	-2.758847	-2.335073	-1.221122	-0.898795	-0.038845	-0.980147	-2.289087	-1.449700	1.678600	2.044840	-0.828428	-0.088867	0.543089	-1.000000	-1.000000	-1.000000	-1.000000	-1.000000	-1.000000	-1.000000	64.000000	0.000000	-1.000000	-1.000000	245793.000000	1775715515.818210
-65147.130000	-29494.035000	-10178.505000	1534.545000	-19185.165000	-40127.850000	5106.825000	-25119.630000	-1.448853	-0.633024	0.467823	1.688630	1.993216	1.606422	-0.091874	-1.220720	-1.449700	1.678600	2.044840	-0.828428	-0.088867	0.543089	-1.000000	-1.000000	-1.000000	-1.000000	-1.000000	-1.000000	-1.000000	64.000000	0.000000	-1.000000	-1.000000	245794.000000	1775715515.818231
-65154.870000	-29501.325000	-10186.155000	1527.480000	-19189.665000	-40112.100000	5104.620000	-25127.370000	0.512802	1.524675	2.766877	3.452237	3.778326	4.689050	0.863264	0.475173	-1.449700	1.678600	2.044840	-0.828428	-0.088867	0.543089	-1.000000	-1.000000	-1.000000	-1.000000	-1.000000	-1.000000	-1.000000	64.000000	0.000000	-1.000000	-1.000000	245795.000000	1775715515.818255
-65153.970000	-29500.335000	-10184.580000	1530.720000	-19184.310000	-40099.095000	5110.200000	-25126.110000	1.435209	2.056871	2.805369	2.714818	3.305416	8.658186	1.414634	1.434602	-1.449700	1.678600	2.044840	-0.828428	-0.088867	0.543089	-1.000000	-1.000000	-1.000000	-1.000000	-1.000000	-1.000000	-1.000000	64.000000	0.000000	-1.000000	-1.000000	245796.000000	1775715515.818267
-65152.305000	-29501.145000	-10185.840000	1529.190000	-19185.930000	-40110.345000	5111.775000	-25123.140000	1.116869	0.960935	0.898754	0.319949	1.339492	10.868570	1.755398	1.359019	-1.449700	1.678600	2.044840	-0.828428	-0.088867	0.543089	-1.000000	-1.000000	-1.000000	-1.000000	-1.000000	-1.000000	-1.000000	64.000000	0.000000	-1.000000	-1.000000	245797.000000	1775715515.825737
-65153.340000	-29504.115000	-10189.845000	1525.995000	-19189.080000	-40117.860000	5113.485000	-25121.340000	0.579482	-0.438871	-1.216955	-1.834240	-0.656149	8.136981	2.115166	1.143804	-1.449700	1.678600	2.044840	-0.828428	-0.088867	0.543089	-1.000000	-1.000000	-1.000000	-1.000000	-1.000000	-1.000000	-1.000000	64.000000	0.000000	-1.000000	-1.000000	245798.000000	1775715515.825764
-65151.720000	-29506.140000	-10193.715000	1522.305000	-19193.220000	-40121.865000	5113.035000	-25120.620000	0.541902	-1.160012	-2.354202	-2.748187	-2.032389	0.187844	2.139999	1.362225	-1.449700	1.678600	2.044840	-0.828428	-0.088867	0.543089	-1.000000	-1.000000	-1.000000	-1.000000	-1.000000	-1.000000	-1.000000	64.000000	0.000000	-1.000000	-1.000000	245799.000000	1775715515.825792
-65148.840000	-29504.340000	-10193.625000	1521.495000	-19194.120000	-40121.865000	5111.730000	-25119.090000	0.954169	-1.000893	-2.306159	-2.476612	-2.717816	-8.951080	1.352790	1.677277	-1.449700	1.678600	2.044840	-0.828428	-0.088867	0.543089	-1.000000	-1.000000	-1.000000	-1.000000	-1.000000	-1.000000	-1.000000	64.000000	0.000000	-1.000000	-1.000000	245800.000000	1775715515.825811
-65144.880000	-29499.345000	-10188.495000	1525.410000	-19190.610000	-40118.805000	5109.165000	-25118.595000	1.508364	-0.017225	-1.138169	-1.279729	-2.486207	-14.024743	-0.246900	1.525957	0.030520	1.541260	1.495480	-0.828367	-0.088501	0.543273	-1.000000	-1.000000	-1.000000	-1.000000	-1.000000	-1.000000	-1.000000	64.000000	0.000000	-1.000000	-1.000000	245801.000000	1775715515.827832
-65143.710000	-29497.905000	-10186.830000	1526.670000	-19188.990000	-40110.300000	5109.300000	-25118.685000	1.848658	1.520512	0.934623	0.609196	-1.093740	-12.402749	-2.053744	0.715190	0.030520	1.541260	1.495480	-0.828367	-0.088501	0.543273	-1.000000	-1.000000	-1.000000	-1.000000	-1.000000	-1.000000	-1.000000	64.000000	0.000000	-1.000000	-1.000000	245802.000000	1775715515.827854
-65149.605000	-29501.145000	-10188.405000	1526.265000	-19190.925000	-40111.605000	5109.120000	-25122.555000	1.457095	2.755121	3.034320	2.542647	0.985135	-5.444454	-3.155340	-0.582232	0.030520	1.541260	1.495480	-0.828367	-0.088501	0.543273	-1.000000	-1.000000	-1.000000	-1.000000	-1.000000	-1.000000	-1.000000	64.000000	0.000000	-1.000000	-1.000000	245803.000000	1775715515.838080
-65152.755000	-29503.620000	-10190.790000	1523.115000	-19194.480000	-40121.190000	5103.720000	-25126.740000	-0.090404	2.596083	3.821417	3.454834	2.490038	2.459838	-3.055151	-2.051725	0.030520	1.541260	1.495480	-0.828367	-0.088501	0.543273	-1.000000	-1.000000	-1.000000	-1.000000	-1.000000	-1.000000	-1.000000	64.000000	0.000000	-1.000000	-1.000000	245804.000000	1775715515.838121
-65151.855000	-29501.595000	-10187.505000	1525.275000	-19194.165000	-40122.180000	5106.060000	-25126.020000	-2.314494	0.890632	2.732760	2.751533	2.471487	6.874207	-2.024622	-3.183649	0.030520	1.541260	1.495480	-0.828367	-0.088501	0.543273	-1.000000	-1.000000	-1.000000	-1.000000	-1.000000	-1.000000	-1.000000	64.000000	0.000000	-1.000000	-1.000000	245805.000000	1775715515.838149
-65147.445000	-29495.430000	-10181.295000	1531.980000	-19188.135000	-40113.495000	5111.280000	-25120.440000	-3.716913	-1.107800	0.715828	1.093491	1.326585	6.745731	-0.435923	-3.154943	0.030520	1.541260	1.495480	-0.828367	-0.088501	0.543273	-1.000000	-1.000000	-1.000000	-1.000000	-1.000000	-1.000000	-1.000000	64.000000	0.000000	-1.000000	-1.000000	245806.000000	1775715515.838161
-65147.580000	-29496.105000	-10181.610000	1531.890000	-19187.145000	-40113.810000	5112.180000	-25120.710000	-3.118374	-1.940774	-0.773819	-0.223186	0.320819	4.404504	1.512124	-1.484509	0.030520	1.541260	1.495480	-0.828367	-0.088501	0.543273	-1.000000	-1.000000	-1.000000	-1.000000	-1.000000	-1.000000	-1.000000	64.000000	0.000000	-1.000000	-1.000000	245807.000000	1775715515.840549
-65148.435000	-29499.120000	-10184.085000	1529.010000	-19189.530000	-40117.635000	5111.235000	-25121.340000	-0.935679	-1.512940	-1.355653	-0.784110	0.025028	2.138433	3.140914	1.043999	0.030520	1.541260	1.495480	-0.828367	-0.088501	0.543273	-1.000000	-1.000000	-1.000000	-1.000000	-1.000000	-1.000000	-1.000000	64.000000	0.000000	-1.000000	-1.000000	245808.000000	1775715515.840571
-65149.470000	-29498.625000	-10183.770000	1529.775000	-19188.180000	-40116.060000	5112.045000	-25122.735000	1.264195	-0.867230	-1.659820	-1.176817	-0.080720	0.410702	3.479065	2.834913	0.030520	1.541260	1.495480	-0.828367	-0.088501	0.543273	-1.000000	-1.000000	-1.000000	-1.000000	-1.000000	-1.000000	-1.000000	64.000000	0.000000	-1.000000	-1.000000	245809.000000	1775715515.851841
-65150.010000	-29496.690000	-10181.790000	1532.070000	-19186.470000	-40118.985000	5111.640000	-25124.130000	2.248914	-0.627593	-1.997856	-1.675741	-0.442008	-0.958605	2.285510	2.907149	0.030520	1.541260	1.495480	-0.828367	-0.088501	0.543273	-1.000000	-1.000000	-1.000000	-1.000000	-1.000000	-1.000000	-1.000000	64.000000	0.000000	-1.000000	-1.000000	245810.000000	1775715515.851867
-65150.910000	-29498.175000	-10183.095000	1531.665000	-19186.740000	-40122.000000	5109.615000	-25125.120000	1.878851	-0.564401	-2.035548	-1.873778	-0.868811	-1.947483	0.226102	1.516466	0.534100	1.495480	0.244160	-0.827818	-0.087585	0.543944	-1.000000	-1.000000	-1.000000	-1.000000	-1.000000	-1.000000	-1.000000	64.000000	0.000000	-1.000000	-1.000000	245811.000000	1775715515.862356
-65146.455000	-29494.530000	-10180.215000	1535.355000	-19184.580000	-40118.985000	5114.655000	-25119.315000	0.876064	-0.334083	-1.504442	-1.439525	-1.052185	-2.390734	-1.657741	-0.190284	0.534100	1.495480	0.244160	-0.827818	-0.087585	0.543944	-1.000000	-1.000000	-1.000000	-1.000000	-1.000000	-1.000000	-1.000000	64.000000	0.000000	-1.000000	-1.000000	245812.000000	1775715515.862382
-65145.645000	-29495.520000	-10183.455000	1530.360000	-19189.485000	-40112.415000	5112.405000	-25119.000000	0.170885	0.136990	-0.567963	-0.577780	-0.984619	-1.869032	-2.471557	-1.004800	0.534100	1.495480	0.244160	-0.827818	-0.087585	0.543944	-1.000000	-1.000000	-1.000000	-1.000000	-1.000000	-1.000000	-1.000000	64.000000	0.000000	-1.000000	-1.000000	245813.000000	1775715515.869432
-65148.525000	-29499.795000	-10187.595000	1524.195000	-19195.740000	-40112.460000	5106.060000	-25123.770000	0.048458	0.547848	0.220798	-0.015540	-1.042720	-0.216242	-2.212234	-0.766404	0.534100	1.495480	0.244160	-0.827818	-0.087585	0.543944	-1.000000	-1.000000	-1.000000	-1.000000	-1.000000	-1.000000	-1.000000	64.000000	0.000000	-1.000000	-1.000000	245814.000000	1775715515.869460
-65152.170000	-29500.470000	-10185.300000	1529.055000	-19191.870000	-40114.305000	5111.685000	-25124.265000	-0.063283	0.416854	0.417892	-0.205682	-1.405389	1.652419	-1.587261	-0.402452	0.534100	1.495480	0.244160	-0.827818	-0.087585	0.543944	-1.000000	-1.000000	-1.000000	-1.000000	-1.000000	-1.000000	-1.000000	64.000000	0.000000	-1.000000	-1.000000	245815.000000	1775715515.869488
-65153.745000	-29499.615000	-10184.265000	1531.395000	-19189.125000	-40113.315000	5109.300000	-25125.480000	-0.681709	-0.186577	0.330797	-0.451662	-1.372997	2.364518	-0.847008	-0.559500	0.534100	1.495480	0.244160	-0.827818	-0.087585	0.543944	-1.000000	-1.000000	-1.000000	-1.000000	-1.000000	-1.000000	-1.000000	64.000000	0.000000	-1.000000	-1.000000	245816.000000	1775715515.869501
-65156.220000	-29501.820000	-10186.695000	1528.920000	-19191.780000	-40114.665000	5105.655000	-25128.900000	-1.534320	-0.628470	0.505210	0.100072	-0.279931	1.512369	0.022540	-1.001169	0.534100	1.495480	0.244160	-0.827818	-0.087585	0.543944	-1.000000	-1.000000	-1.000000	-1.000000	-1.000000	-1.000000	-1.000000	64.000000	0.000000	-1.000000	-1.000000	245817.000000	1775715515.906502
-65151.270000	-29498.535000	-10184.265000	1530.810000	-19189.305000	-40112.460000	5114.610000	-25123.815000	-1.823965	-0.476008	0.911733	1.148583	1.355157	-0.133442	0.805750	-1.152578	0.534100	1.495480	0.244160	-0.827818	-0.087585	0.543944	-1.000000	-1.000000	-1.000000	-1.000000	-1.000000	-1.000000	-1.000000	64.000000	0.000000	-1.000000	-1.000000	245818.000000	1775715515.906533
-65150.820000	-29499.345000	-10186.470000	1528.785000	-19191.150000	-40116.330000	5114.745000	-25124.220000	-0.949544	0.227146	1.199589	1.819433	2.471260	-1.527030	1.567919	-0.544917	0.534100	1.495480	0.244160	-0.827818	-0.087585	0.543944	-1.000000	-1.000000	-1.000000	-1.000000	-1.000000	-1.000000	-1.000000	64.000000	0.000000	-1.000000	-1.000000	245819.000000	1775715515.906564
-65155.005000	-29501.415000	-10188.045000	1526.985000	-19192.815000	-40116.105000	5112.180000	-25127.640000	0.707410	1.014934	1.086969	1.617344	2.450478	-2.142023	2.210321	0.622591	0.534100	1.495480	0.244160	-0.827818	-0.087585	0.543944	-1.000000	-1.000000	-1.000000	-1.000000	-1.000000	-1.000000	-1.000000	64.000000	0.000000	-1.000000	-1.000000	245820.000000	1775715515.906576
-65151.135000	-29498.040000	-10185.300000	1529.820000	-19189.620000	-40109.985000	5116.275000	-25122.690000	1.976167	1.327215	0.550817	0.690985	1.411614	-1.844643	2.112031	1.532601	0.289940	1.739640	0.503580	-0.827146	-0.084900	0.544432	-1.000000	-1.000000	-1.000000	-1.000000	-1.000000	-1.000000	-1.000000	64.000000	0.000000	-1.000000	-1.000000	245821.000000	1775715515.906695
-65147.040000	-29494.665000	-10182.420000	1532.295000	-19186.830000	-40109.220000	5118.885000	-25118.910000	2.284662	1.167250	0.036024	-0.220150	0.178328	-0.594507	1.189929	1.847016	0.289940	1.739640	0.503580	-0.827146	-0.084900	0.544432	-1.000000	-1.000000	-1.000000	-1.000000	-1.000000	-1.000000	-1.000000	64.000000	0.000000	-1.000000	-1.000000	245822.000000	1775715515.906711
-65147.895000	-29494.395000	-10181.205000	1533.870000	-19185.165000	-40108.320000	5117.760000	-25120.710000	1.953222	0.924161	0.005927	-0.449347	-0.432104	1.092823	0.040334	1.770590	0.289940	1.739640	0.503580	-0.827146	-0.084900	0.544432	-1.000000	-1.000000	-1.000000	-1.000000	-1.000000	-1.000000	-1.000000	64.000000	0.000000	-1.000000	-1.000000	245823.000000	1775715515.906730
-65150.190000	-29496.330000	-10182.510000	1532.520000	-19187.190000	-40110.030000	5115.330000	-25124.220000	1.167079	0.596429	0.286780	-0.112798	-0.424373	2.143511	-1.004922	1.161346	0.289940	1.739640	0.503580	-0.827146	-0.084900	0.544432	-1.000000	-1.000000	-1.000000	-1.000000	-1.000000	-1.000000	-1.000000	64.000000	0.000000	-1.000000	-1.000000	245824.000000	1775715515.906742
-65147.490000	-29493.270000	-10180.710000	1532.655000	-19188.135000	-40115.025000	5113.845000	-25122.780000	-0.085657	-0.059843	0.318188	0.126507	-0.438055	1.774139	-1.950619	-0.175774	0.289940	1.739640	0.503580	-0.827146	-0.084900	0.544432	-1.000000	-1.000000	-1.000000	-1.000000	-1.000000	-1.000000	-1.000000	64.000000	0.000000	-1.000000	-1.000000	245825.000000	1775715515.906756
-65139.750000	-29489.670000	-10179.180000	1532.385000	-19186.650000	-40111.380000	5112.585000	-25119.405000	-1.219124	-0.798282	-0.072632	-0.132676	-0.831394	0.190020	-2.605897	-1.613676	0.289940	1.739640	0.503580	-0.827146	-0.084900	0.544432	-1.000000	-1.000000	-1.000000	-1.000000	-1.000000	-1.000000	-1.000000	64.000000	0.000000	-1.000000	-1.000000	245826.000000	1775715515.906767
-65139.840000	-29490.300000	-10180.845000	1530.630000	-19189.215000	-40113.765000	5110.470000	-25121.025000	-1.396336	-1.096487	-0.602115	-0.726414	-1.316261	-1.442334	-2.607835	-2.173723	0.289940	1.739640	0.503580	-0.827146	-0.084900	0.544432	-1.000000	-1.000000	-1.000000	-1.000000	-1.000000	-1.000000	-1.000000	64.000000	0.000000	-1.000000	-1.000000	245827.000000	1775715515.906782
-65148.525000	-29497.365000	-10186.290000	1526.220000	-19194.570000	-40121.820000	5106.420000	-25126.830000	-0.895012	-1.075090	-1.137140	-1.331299	-1.592188	-2.199215	-1.886781	-1.789431	0.289940	1.739640	0.503580	-0.827146	-0.084900	0.544432	-1.000000	-1.000000	-1.000000	-1.000000	-1.000000	-1.000000	-1.000000	64.000000	0.000000	-1.000000	-1.000000	245828.000000	1775715515.906794
-65146.230000	-29496.960000	-10186.920000	1525.995000	-19191.735000	-40116.420000	5109.795000	-25124.715000	-0.879403	-1.331578	-1.733667	-1.719586	-1.610101	-2.082661	-0.687472	-1.193342	0.289940	1.739640	0.503580	-0.827146	-0.084900	0.544432	-1.000000	-1.000000	-1.000000	-1.000000	-1.000000	-1.000000	-1.000000	64.000000	0.000000	-1.000000	-1.000000	245829.000000	1775715515.906808
-65142.900000	-29493.405000	-10182.330000	1530.990000	-19186.335000	-40109.040000	5115.555000	-25120.620000	-1.471714	-1.725657	-1.994547	-1.502403	-1.029990	-1.024546	0.900788	-0.607102	0.289940	1.739640	0.503580	-0.827146	-0.084900	0.544432	-1.000000	-1.000000	-1.000000	-1.000000	-1.000000	-1.000000	-1.000000	64.000000	0.000000	-1.000000	-1.000000	245830.000000	1775715515.906819
-65146.995000	-29494.620000	-10182.915000	1531.170000	-19186.695000	-40113.450000	5114.610000	-25123.185000	-1.668365	-1.413749	-1.241671	-0.307141	0.461325	1.014982	2.726848	0.286200	-1.175020	1.510740	0.000000	-0.827390	-0.082763	0.544676	-1.000000	-1.000000	-1.000000	-1.000000	-1.000000	-1.000000	-1.000000	64.000000	0.000000	-1.000000	-1.000000	245831.000000	1775715515.906832
-65140.065000	-29488.545000	-10177.605000	1536.660000	-19180.710000	-40109.940000	5116.635000	-25119.090000	-0.949963	-0.101464	0.491758	1.540240	2.307858	2.959557	3.986294	1.332473	-1.175020	1.510740	0.000000	-0.827390	-0.082763	0.544676	-1.000000	-1.000000	-1.000000	-1.000000	-1.000000	-1.000000	-1.000000	64.000000	0.000000	-1.000000	-1.000000	245832.000000	1775715515.906843
-65141.055000	-29489.940000	-10179.180000	1534.500000	-19180.440000	-40101.795000	5114.835000	-25120.845000	0.420617	1.620955	2.312161	3.046680	3.475415	3.649502	3.763470	1.979084	-1.175020	1.510740	0.000000	-0.827390	-0.082763	0.544676	-1.000000	-1.000000	-1.000000	-1.000000	-1.000000	-1.000000	-1.000000	64.000000	0.000000	-1.000000	-1.000000	245833.000000	1775715515.906856
-65141.730000	-29492.640000	-10182.600000	1530.405000	-19183.050000	-40099.590000	5111.685000	-25123.140000	1.744033	2.702382	3.073223	3.155275	3.206638	3.144907	1.914898	1.806828	-1.175020	1.510740	0.000000	-0.827390	-0.082763	0.544676	-1.000000	-1.000000	-1.000000	-1.000000	-1.000000	-1.000000	-1.000000	64.000000	0.000000	-1.000000	-1.000000	245834.000000	1775715515.906867
-65149.290000	-29498.400000	-10186.155000	1527.030000	-19190.340000	-40123.980000	5108.760000	-25127.010000	2.052580	2.222350	2.087468	1.438239	1.236895	1.461532	-0.859176	0.688734	-1.175020	1.510740	0.000000	-0.827390	-0.082763	0.544676	-1.000000	-1.000000	-1.000000	-1.000000	-1.000000	-1.000000	-1.000000	64.000000	0.000000	-1.000000	-1.000000	245835.000000	1775715515.906888
-65141.460000	-29492.280000	-10180.935000	1531.035000	-19188.585000	-40129.605000	5113.260000	-25120.530000	1.051918	0.383399	-0.071167	-1.207773	-1.789583	-2.059395	-3.245987	-0.825837	-1.175020	1.510740	0.000000	-0.827390	-0.082763	0.544676	-1.000000	-1.000000	-1.000000	-1.000000	-1.000000	-1.000000	-1.000000	64.000000	0.000000	-1.000000	-1.000000	245836.000000	1775715515.906900
-65135.205000	-29485.980000	-10175.310000	1535.580000	-19184.490000	-40120.380000	5113.260000	-25119.180000	-0.113081	-1.218143	-1.692150	-2.914144	-4.119992	-6.194629	-3.914748	-1.575331	-1.175020	1.510740	0.000000	-0.827390	-0.082763	0.544676	-1.000000	-1.000000	-1.000000	-1.000000	-1.000000	-1.000000	-1.000000	64.000000	0.000000	-1.000000	-1.000000	245837.000000	1775715515.906914
-65139.165000	-29488.365000	-10177.695000	1533.780000	-19185.390000	-40105.755000	5112.360000	-25121.340000	-0.203324	-1.217090	-1.595404	-2.541214	-4.148153	-7.195164	-2.631527	-1.032897	-1.175020	1.510740	0.000000	-0.827390	-0.082763	0.544676	-1.000000	-1.000000	-1.000000	-1.000000	-1.000000	-1.000000	-1.000000	64.000000	0.000000	-1.000000	-1.000000	245838.000000	1775715515.906925
-65145.060000	-29492.595000	-10180.305000	1533.735000	-19183.410000	-40093.155000	5105.655000	-25125.885000	0.271916	-0.173930	-0.445554	-0.794471	-1.998234	-2.811670	-0.608036	-0.057464	-1.175020	1.510740	0.000000	-0.827390	-0.082763	0.544676	-1.000000	-1.000000	-1.000000	-1.000000	-1.000000	-1.000000	-1.000000	64.000000	0.000000	-1.000000	-1.000000	245839.000000	1775715515.906939
-65146.140000	-29493.180000	-10179.045000	1535.535000	-19180.800000	-40096.260000	5103.990000	-25127.460000	-0.023348	0.345140	0.300251	0.803090	0.829263	4.530111	0.643376	0.206047	-1.175020	1.510740	0.000000	-0.827390	-0.082763	0.544676	-1.000000	-1.000000	-1.000000	-1.000000	-1.000000	-1.000000	-1.000000	64.000000	0.000000	-1.000000	-1.000000	245840.000000	1775715515.906950
-65146.590000	-29497.455000	-10185.030000	1528.110000	-19190.385000	-40115.835000	5105.070000	-25126.380000	-1.162591	-0.245416	0.059078	1.312533	2.705608	9.166256	0.748438	-0.312937	-1.785420	1.968540	-0.305200	-0.827024	-0.083130	0.545714	-1.000000	-1.000000	-1.000000	-1.000000	-1.000000	-1.000000	-1.000000	64.000000	0.000000	-1.000000	-1.000000	245841.000000	1775715515.910101
-65137.095000	-29489.670000	-10178.190000	1535.490000	-19184.940000	-40112.100000	5119.650000	-25114.680000	-1.844215	-1.157669	-0.689617	0.711690	2.680271	7.154311	0.778369	-0.545539	-1.785420	1.968540	-0.305200	-0.827024	-0.083130	0.545714	-1.000000	-1.000000	-1.000000	-1.000000	-1.000000	-1.000000	-1.000000	64.000000	0.000000	-1.000000	-1.000000	245842.000000	1775715515.910127
-65130.120000	-29484.540000	-10174.770000	1538.505000	-19181.160000	-40106.565000	5122.395000	-25110.450000	-0.813765	-1.082470	-0.913713	-0.072955	1.338556	0.411634	1.934984	0.550863	-1.785420	1.968540	-0.305200	-0.827024	-0.083130	0.545714	-1.000000	-1.000000	-1.000000	-1.000000	-1.000000	-1.000000	-1.000000	64.000000	0.000000	-1.000000	-1.000000	245843.000000	1775715515.916320
-65152.170000	-29502.990000	-10190.745000	1524.060000	-19195.245000	-40112.640000	5112.045000	-25129.215000	1.256206	0.079437	-0.317816	-0.331844	-0.043451	-5.559269	3.519532	2.170746	-1.785420	1.968540	-0.305200	-0.827024	-0.083130	0.545714	-1.000000	-1.000000	-1.000000	-1.000000	-1.000000	-1.000000	-1.000000	64.000000	0.000000	-1.000000	-1.000000	245844.000000	1775715515.916346
-65152.215000	-29501.010000	-10189.170000	1525.725000	-19195.470000	-40116.195000	5111.730000	-25128.630000	1.821871	0.672793	-0.020376	-0.652686	-1.248604	-7.492301	3.288233	1.972853	-1.785420	1.968540	-0.305200	-0.827024	-0.083130	0.545714	-1.000000	-1.000000	-1.000000	-1.000000	-1.000000	-1.000000	-1.000000	64.000000	0.000000	-1.000000	-1.000000	245845.000000	1775715515.917734
-65152.530000	-29501.865000	-10190.070000	1524.285000	-19198.530000	-40125.645000	5105.430000	-25130.250000	-0.045289	-0.116257	-0.571061	-1.363601	-2.319202	-5.986877	0.446576	-0.571815	-1.785420	1.968540	-0.305200	-0.827024	-0.083130	0.545714	-1.000000	-1.000000	-1.000000	-1.000000	-1.000000	-1.000000	-1.000000	64.000000	0.000000	-1.000000	-1.000000	245846.000000	1775715515.917757
-65148.930000	-29499.300000	-10188.720000	1525.905000	-19195.245000	-40115.430000	5110.605000	-25126.200000	-2.159982	-0.978515	-0.938276	-1.582408	-2.482945	-2.906202	-3.200685	-3.137719	-1.785420	1.968540	-0.305200	-0.827024	-0.083130	0.545714	-1.000000	-1.000000	-1.000000	-1.000000	-1.000000	-1.000000	-1.000000	64.000000	0.000000	-1.000000	-1.000000	245847.000000	1775715515.919084
-65148.570000	-29497.230000	-10186.605000	1528.155000	-19191.870000	-40107.915000	5111.910000	-25125.570000	-2.218383	-0.563554	-0.195015	-0.601259	-1.078721	0.863168	-5.054272	-3.414526	-1.785420	1.968540	-0.305200	-0.827024	-0.083130	0.545714	-1.000000	-1.000000	-1.000000	-1.000000	-1.000000	-1.000000	-1.000000	64.000000	0.000000	-1.000000	-1.000000	245848.000000	1775715515.919102
-65151.540000	-29497.815000	-10185.030000	1530.135000	-19188.765000	-40106.340000	5113.665000	-25127.235000	-0.251072	0.995170	1.422442	1.253229	1.505818	4.814159	-3.938001	-1.336687	-1.785420	1.968540	-0.305200	-0.827024	-0.083130	0.545714	-1.000000	-1.000000	-1.000000	-1.000000	-1.000000	-1.000000	-1.000000	64.000000	0.000000	-1.000000	-1.000000	245849.000000	1775715515.924066
-65151.810000	-29498.490000	-10185.255000	1530.540000	-19189.080000	-40112.415000	5114.520000	-25126.245000	1.971933	2.460304	2.888844	2.943959	3.894431	7.297612	-0.861221	1.370580	-1.785420	1.968540	-0.305200	-0.827024	-0.083130	0.545714	-1.000000	-1.000000	-1.000000	-1.000000	-1.000000	-1.000000	-1.000000	64.000000	0.000000	-1.000000	-1.000000	245850.000000	1775715515.924092
-65155.680000	-29502.585000	-10189.620000	1525.995000	-19194.840000	-40128.480000	5110.020000	-25129.800000	2.862329	2.636474	3.116976	3.360975	4.503883	6.227415	2.045678	2.954646	-1.632820	2.197440	-0.686700	-0.826414	-0.085022	0.545897	-1.000000	-1.000000	-1.000000	-1.000000	-1.000000	-1.000000	-1.000000	64.000000	0.000000	-1.000000	-1.000000	245851.000000	1775715515.937124
-65151.405000	-29499.165000	-10187.505000	1527.570000	-19194.480000	-40134.555000	5111.055000	-25127.055000	2.187805	1.359534	1.759882	2.077966	2.701744	1.313910	3.147844	2.810645	-1.632820	2.197440	-0.686700	-0.826414	-0.085022	0.545897	-1.000000	-1.000000	-1.000000	-1.000000	-1.000000	-1.000000	-1.000000	64.000000	0.000000	-1.000000	-1.000000	245852.000000	1775715515.937151
-65147.760000	-29495.115000	-10182.690000	1532.700000	-19188.495000	-40119.345000	5113.035000	-25123.545000	0.943641	-0.319307	-0.278139	-0.060025	-0.360198	-4.459470	2.376449	1.599120	-1.632820	2.197440	-0.686700	-0.826414	-0.085022	0.545897	-1.000000	-1.000000	-1.000000	-1.000000	-1.000000	-1.000000	-1.000000	64.000000	0.000000	-1.000000	-1.000000	245853.000000	1775715515.937375
-65153.295000	-29502.045000	-10191.015000	1525.095000	-19194.705000	-40110.615000	5109.660000	-25128.225000	0.107253	-1.282474	-1.727816	-1.694767	-2.676425	-6.505707	0.845612	0.356375	-1.632820	2.197440	-0.686700	-0.826414	-0.085022	0.545897	-1.000000	-1.000000	-1.000000	-1.000000	-1.000000	-1.000000	-1.000000	64.000000	0.000000	-1.000000	-1.000000	245854.000000	1775715515.937394
-65154.870000	-29504.430000	-10192.635000	1523.430000	-19196.235000	-40113.945000	5107.410000	-25129.620000	-0.439191	-1.604532	-2.378999	-2.450410	-3.419020	-3.274609	-0.534239	-0.618076	-1.632820	2.197440	-0.686700	-0.826414	-0.085022	0.545897	-1.000000	-1.000000	-1.000000	-1.000000	-1.000000	-1.000000	-1.000000	64.000000	0.000000	-1.000000	-1.000000	245855.000000	1775715515.937418
-65155.185000	-29503.980000	-10191.870000	1524.240000	-19195.920000	-40117.095000	5106.195000	-25130.205000	-1.151119	-1.824918	-2.577513	-2.627824	-3.029998	1.925405	-1.456288	-1.461834	-1.632820	2.197440	-0.686700	-0.826414	-0.085022	0.545897	-1.000000	-1.000000	-1.000000	-1.000000	-1.000000	-1.000000	-1.000000	64.000000	0.000000	-1.000000	-1.000000	245856.000000	1775715515.937429
-65152.485000	-29501.280000	-10187.910000	1528.110000	-19191.780000	-40110.930000	5110.380000	-25128.270000	-1.730332	-1.735245	-2.087905	-2.081049	-1.881452	4.840824	-1.659829	-1.918141	-1.632820	2.197440	-0.686700	-0.826414	-0.085022	0.545897	-1.000000	-1.000000	-1.000000	-1.000000	-1.000000	-1.000000	-1.000000	64.000000	0.000000	-1.000000	-1.000000	245857.000000	1775715515.943978
-65156.085000	-29503.620000	-10189.935000	1525.590000	-19194.615000	-40116.735000	5105.790000	-25131.915000	-1.618642	-0.905752	-0.657319	-0.649909	-0.186133	4.179105	-0.984859	-1.643588	-1.632820	2.197440	-0.686700	-0.826414	-0.085022	0.545897	-1.000000	-1.000000	-1.000000	-1.000000	-1.000000	-1.000000	-1.000000	64.000000	0.000000	-1.000000	-1.000000	245858.000000	1775715515.944007
-65151.900000	-29499.750000	-10186.470000	1529.100000	-19192.365000	-40117.095000	5107.275000	-25128.765000	-0.833325	0.426279	1.148667	1.081931	1.422027	1.174198	0.117343	-0.786485	-1.632820	2.197440	-0.686700	-0.826414	-0.085022	0.545897	-1.000000	-1.000000	-1.000000	-1.000000	-1.000000	-1.000000	-1.000000	64.000000	0.000000	-1.000000	-1.000000	245859.000000	1775715515.947244
-65150.415000	-29502.180000	-10189.980000	1524.555000	-19196.730000	-40120.065000	5104.485000	-25128.855000	0.258174	1.591111	2.358556	2.190895	2.172371	-2.254517	0.912050	0.261242	-1.632820	2.197440	-0.686700	-0.826414	-0.085022	0.545897	-1.000000	-1.000000	-1.000000	-1.000000	-1.000000	-1.000000	-1.000000	64.000000	0.000000	-1.000000	-1.000000	245860.000000	1775715515.947272
-65144.970000	-29500.515000	-10190.475000	1522.665000	-19198.080000	-40122.000000	5104.935000	-25124.490000	1.357912	2.027875	2.330380	2.069258	1.734528	-4.452068	1.066265	1.224768	-1.236060	2.807840	-0.305200	-0.826780	-0.087158	0.545775	-1.000000	-1.000000	-1.000000	-1.000000	-1.000000	-1.000000	-1.000000	64.000000	0.000000	-1.000000	-1.000000	245861.000000	1775715515.959422
-65147.715000	-29499.795000	-10188.045000	1526.310000	-19196.955000	-40124.475000	5108.760000	-25124.895000	2.075990	1.611344	1.203482	0.896148	0.490129	-4.661692	0.815195	1.870360	-1.236060	2.807840	-0.305200	-0.826780	-0.087158	0.545775	-1.000000	-1.000000	-1.000000	-1.000000	-1.000000	-1.000000	-1.000000	64.000000	0.000000	-1.000000	-1.000000	245862.000000	1775715515.959450
-65149.785000	-29500.380000	-10187.550000	1526.760000	-19196.730000	-40126.590000	5110.335000	-25126.380000	1.824434	0.688267	-0.134068	-0.317197	-0.626915	-3.159986	0.683436	1.862154	-1.236060	2.807840	-0.305200	-0.826780	-0.087158	0.545775	-1.000000	-1.000000	-1.000000	-1.000000	-1.000000	-1.000000	-1.000000	64.000000	0.000000	-1.000000	-1.000000	245863.000000	1775715515.959480
-65152.395000	-29503.575000	-10191.195000	1523.160000	-19199.925000	-40130.595000	5104.710000	-25130.475000	0.353866	-0.362105	-0.958125	-0.806736	-0.980693	-0.871510	0.726483	0.906453	-1.236060	2.807840	-0.305200	-0.826780	-0.087158	0.545775	-1.000000	-1.000000	-1.000000	-1.000000	-1.000000	-1.000000	-1.000000	64.000000	0.000000	-1.000000	-1.000000	245864.000000	1775715515.959493
-65150.190000	-29502.045000	-10189.620000	1524.735000	-19196.235000	-40118.940000	5107.410000	-25128.540000	-1.627580	-1.294114	-1.263132	-0.751192	-0.671639	1.416759	0.418291	-0.737953	-1.236060	2.807840	-0.305200	-0.826780	-0.087158	0.545775	-1.000000	-1.000000	-1.000000	-1.000000	-1.000000	-1.000000	-1.000000	64.000000	0.000000	-1.000000	-1.000000	245865.000000	1775715515.959508
-65155.995000	-29506.995000	-10194.570000	1520.730000	-19199.160000	-40119.615000	5105.610000	-25133.220000	-2.932310	-1.836074	-1.288945	-0.601479	-0.060059	3.510516	-0.364145	-2.186665	-1.236060	2.807840	-0.305200	-0.826780	-0.087158	0.545775	-1.000000	-1.000000	-1.000000	-1.000000	-1.000000	-1.000000	-1.000000	64.000000	0.000000	-1.000000	-1.000000	245866.000000	1775715515.959520
-65155.095000	-29505.195000	-10190.745000	1525.095000	-19195.245000	-40129.155000	5111.730000	-25131.510000	-2.980675	-1.818202	-1.113703	-0.476865	0.539316	4.779651	-1.009619	-2.666891	-1.236060	2.807840	-0.305200	-0.826780	-0.087158	0.545775	-1.000000	-1.000000	-1.000000	-1.000000	-1.000000	-1.000000	-1.000000	64.000000	0.000000	-1.000000	-1.000000	245867.000000	1775715515.967455
-65153.655000	-29501.820000	-10186.920000	1528.785000	-19192.950000	-40128.435000	5110.920000	-25131.105000	-1.887067	-1.140095	-0.531181	-0.107768	0.971600	3.987209	-0.915939	-1.966462	-1.236060	2.807840	-0.305200	-0.826780	-0.087158	0.545775	-1.000000	-1.000000	-1.000000	-1.000000	-1.000000	-1.000000	-1.000000	64.000000	0.000000	-1.000000	-1.000000	245868.000000	1775715515.967630
-65153.655000	-29501.820000	-10188.045000	1526.580000	-19195.380000	-40120.470000	5109.075000	-25131.600000	-0.044947	0.188954	0.578129	0.655469	1.162288	1.397426	-0.255044	-0.405337	-1.236060	2.807840	-0.305200	-0.826780	-0.087158	0.545775	-1.000000	-1.000000	-1.000000	-1.000000	-1.000000	-1.000000	-1.000000	64.000000	0.000000	-1.000000	-1.000000	245869.000000	1775715515.968562
-65156.985000	-29507.355000	-10193.985000	1519.965000	-19201.185000	-40111.065000	5106.060000	-25134.255000	1.763774	1.517935	1.529694	1.150919	0.749717	-0.781144	0.141943	1.193795	-1.236060	2.807840	-0.305200	-0.826780	-0.087158	0.545775	-1.000000	-1.000000	-1.000000	-1.000000	-1.000000	-1.000000	-1.000000	64.000000	0.000000	-1.000000	-1.000000	245870.000000	1775715515.968579
-65152.440000	-29503.440000	-10189.665000	1524.240000	-19195.965000	-40107.240000	5108.355000	-25130.025000	2.699127	1.912781	1.435256	0.632428	-0.406205	-0.924335	-0.160016	2.059659	-0.747740	3.006220	-0.518840	-0.827329	-0.087829	0.545531	-1.000000	-1.000000	-1.000000	-1.000000	-1.000000	-1.000000	-1.000000	64.000000	0.000000	-1.000000	-1.000000	245871.000000	1775715515.968603
-65153.790000	-29504.655000	-10190.520000	1522.530000	-19197.990000	-40114.620000	5105.925000	-25130.700000	2.612153	1.310859	0.494161	-0.478314	-1.525480	0.125755	-0.714659	2.117050	-0.747740	3.006220	-0.518840	-0.827329	-0.087829	0.545531	-1.000000	-1.000000	-1.000000	-1.000000	-1.000000	-1.000000	-1.000000	64.000000	0.000000	-1.000000	-1.000000	245872.000000	1775715515.968615
-65148.840000	-29498.940000	-10186.020000	1526.940000	-19194.975000	-40120.200000	5104.935000	-25126.020000	1.932965	0.498188	-0.307920	-1.094982	-1.702786	0.110843	-0.943597	1.741389	-0.747740	3.006220	-0.518840	-0.827329	-0.087829	0.545531	-1.000000	-1.000000	-1.000000	-1.000000	-1.000000	-1.000000	-1.000000	64.000000	0.000000	-1.000000	-1.000000	245873.000000	1775715515.972544
-65147.985000	-29498.580000	-10186.290000	1525.905000	-19196.415000	-40131.540000	5104.440000	-25125.795000	1.127763	0.152818	-0.384985	-0.729291	-0.901831	-2.082960	-0.721667	1.235096	-0.747740	3.006220	-0.518840	-0.827329	-0.087829	0.545531	-1.000000	-1.000000	-1.000000	-1.000000	-1.000000	-1.000000	-1.000000	64.000000	0.000000	-1.000000	-1.000000	245874.000000	1775715515.972571
-65137.950000	-29495.115000	-10185.480000	1524.780000	-19190.655000	-40116.600000	5101.200000	-25124.940000	0.557950	0.302174	0.035983	0.158435	0.300464	-4.962193	-0.236241	0.636212	-0.747740	3.006220	-0.518840	-0.827329	-0.087829	0.545531	-1.000000	-1.000000	-1.000000	-1.000000	-1.000000	-1.000000	-1.000000	64.000000	0.000000	-1.000000	-1.000000	245875.000000	1775715515.980668
-65145.690000	-29501.145000	-10189.620000	1522.035000	-19190.790000	-40104.945000	5100.930000	-25131.105000	0.243938	0.372800	0.260976	0.674955	1.346499	-5.322780	0.230649	-0.275147	-0.747740	3.006220	-0.518840	-0.827329	-0.087829	0.545531	-1.000000	-1.000000	-1.000000	-1.000000	-1.000000	-1.000000	-1.000000	64.000000	0.000000	-1.000000	-1.000000	245876.000000	1775715515.980694
-65156.220000	-29504.970000	-10189.710000	1524.960000	-19193.310000	-40108.680000	5104.530000	-25134.705000	-0.607569	-0.331618	-0.184825	0.430215	1.745380	-1.723956	0.614428	-1.671735	-0.747740	3.006220	-0.518840	-0.827329	-0.087829	0.545531	-1.000000	-1.000000	-1.000000	-1.000000	-1.000000	-1.000000	-1.000000	64.000000	0.000000	-1.000000	-1.000000	245877.000000	1775715515.980722
-65161.305000	-29509.740000	-10194.570000	1520.640000	-19199.565000	-40115.835000	5100.840000	-25138.395000	-2.741849	-1.872688	-1.117535	-0.183123	1.012265	3.117304	1.043845	-3.185855	-0.747740	3.006220	-0.518840	-0.827329	-0.087829	0.545531	-1.000000	-1.000000	-1.000000	-1.000000	-1.000000	-1.000000	-1.000000	64.000000	0.000000	-1.000000	-1.000000	245878.000000	1775715515.980734
-65162.520000	-29509.695000	-10194.255000	1520.415000	-19201.095000	-40118.445000	5098.410000	-25139.295000	-5.183335	-3.323880	-1.909998	-0.687238	-0.776957	5.168350	1.278001	-3.907378	-0.747740	3.006220	-0.518840	-0.827329	-0.087829	0.545531	-1.000000	-1.000000	-1.000000	-1.000000	-1.000000	-1.000000	-1.000000	64.000000	0.000000	-1.000000	-1.000000	245879.000000	1775715515.989076
-65159.865000	-29506.140000	-10191.645000	1522.980000	-19197.900000	-40117.140000	5099.715000	-25136.865000	-5.738133	-3.376541	-1.879801	-0.820665	-2.508122	3.401081	0.944308	-3.044414	-0.747740	3.006220	-0.518840	-0.827329	-0.087829	0.545531	-1.000000	-1.000000	-1.000000	-1.000000	-1.000000	-1.000000	-1.000000	64.000000	0.000000	-1.000000	-1.000000	245880.000000	1775715515.989104
-65158.155000	-29505.555000	-10191.780000	1522.665000	-19196.595000	-40115.070000	5102.145000	-25134.390000	-3.235035	-1.469970	-0.711249	-0.389637	-2.746029	0.081621	0.313295	-0.577969	0.076300	2.838360	-0.732480	-0.826170	-0.089966	0.546202	-1.000000	-1.000000	-1.000000	-1.000000	-1.000000	-1.000000	-1.000000	64.000000	0.000000	-1.000000	-1.000000	245881.000000	1775715515.989133
-65155.860000	-29502.630000	-10189.125000	1525.185000	-19195.650000	-40116.915000	5104.755000	-25132.050000	1.314477	1.560283	1.120167	0.477140	-1.152236	-2.117669	0.034959	2.544875	0.076300	2.838360	-0.732480	-0.826170	-0.089966	0.546202	-1.000000	-1.000000	-1.000000	-1.000000	-1.000000	-1.000000	-1.000000	64.000000	0.000000	-1.000000	-1.000000	245882.000000	1775715515.989145
-65150.370000	-29496.870000	-10184.040000	1530.495000	-19190.790000	-40111.560000	5108.175000	-25128.000000	5.610153	4.174076	2.725432	1.384257	1.261969	-2.213588	0.340909	4.908261	0.076300	2.838360	-0.732480	-0.826170	-0.089966	0.546202	-1.000000	-1.000000	-1.000000	-1.000000	-1.000000	-1.000000	-1.000000	64.000000	0.000000	-1.000000	-1.000000	245883.000000	1775715515.994307
-65151.495000	-29498.715000	-10187.145000	1526.805000	-19194.615000	-40112.280000	5105.835000	-25130.160000	7.684874	5.213817	3.405940	1.924992	3.091176	-0.760102	0.802522	5.434698	0.076300	2.838360	-0.732480	-0.826170	-0.089966	0.546202	-1.000000	-1.000000	-1.000000	-1.000000	-1.000000	-1.000000	-1.000000	64.000000	0.000000	-1.000000	-1.000000	245884.000000	1775715515.994333
-65156.490000	-29501.640000	-10188.945000	1525.410000	-19196.190000	-40112.595000	5105.475000	-25132.995000	6.620374	4.130374	2.672835	1.576215	3.265554	0.975845	0.690397	3.767800	0.076300	2.838360	-0.732480	-0.826170	-0.089966	0.546202	-1.000000	-1.000000	-1.000000	-1.000000	-1.000000	-1.000000	-1.000000	64.000000	0.000000	-1.000000	-1.000000	245885.000000	1775715515.997208
-65155.680000	-29502.315000	-10189.890000	1524.555000	-19196.190000	-40112.325000	5106.465000	-25132.185000	2.820819	1.185037	0.587282	0.160122	1.660900	1.803739	-0.242300	0.516885	0.076300	2.838360	-0.732480	-0.826170	-0.089966	0.546202	-1.000000	-1.000000	-1.000000	-1.000000	-1.000000	-1.000000	-1.000000	64.000000	0.000000	-1.000000	-1.000000	245886.000000	1775715515.997231
-65158.245000	-29505.690000	-10192.950000	1520.820000	-19201.365000	-40120.740000	5103.810000	-25134.570000	-1.869823	-2.320382	-1.905666	-1.667806	-0.738821	1.246936	-1.460423	-2.795834	0.076300	2.838360	-0.732480	-0.826170	-0.089966	0.546202	-1.000000	-1.000000	-1.000000	-1.000000	-1.000000	-1.000000	-1.000000	64.000000	0.000000	-1.000000	-1.000000	245887.000000	1775715516.004810
-65156.130000	-29502.720000	-10188.450000	1524.645000	-19198.215000	-40119.030000	5105.655000	-25133.715000	-5.180998	-4.702226	-3.509494	-2.872197	-2.631913	-0.371363	-2.241093	-4.669336	0.076300	2.838360	-0.732480	-0.826170	-0.089966	0.546202	-1.000000	-1.000000	-1.000000	-1.000000	-1.000000	-1.000000	-1.000000	64.000000	0.000000	-1.000000	-1.000000	245888.000000	1775715516.004840
-65151.945000	-29497.905000	-10182.825000	1530.270000	-19192.095000	-40113.135000	5108.310000	-25130.430000	-5.749254	-4.784263	-3.250337	-2.582058	-2.964479	-1.844479	-2.103518	-4.441533	0.076300	2.838360	-0.732480	-0.826170	-0.089966	0.546202	-1.000000	-1.000000	-1.000000	-1.000000	-1.000000	-1.000000	-1.000000	64.000000	0.000000	-1.000000	-1.000000	245889.000000	1775715516.004868
-65152.800000	-29499.030000	-10185.075000	1528.470000	-19192.995000	-40109.670000	5105.880000	-25131.060000	-3.711902	-2.587245	-1.198009	-0.729709	-1.439729	-1.735848	-1.040538	-2.432010	0.076300	2.838360	-0.732480	-0.826170	-0.089966	0.546202	-1.000000	-1.000000	-1.000000	-1.000000	-1.000000	-1.000000	-1.000000	64.000000	0.000000	-1.000000	-1.000000	245890.000000	1775715516.004881
-65150.190000	-29496.015000	-10181.610000	1533.510000	-19186.200000	-40098.105000	5110.200000	-25127.820000	-0.555922	0.488536	1.263342	1.561306	0.984077	0.228858	0.354784	0.231589	0.686700	2.639980	-0.778260	-0.826414	-0.090637	0.545897	-1.000000	-1.000000	-1.000000	-1.000000	-1.000000	-1.000000	-1.000000	64.000000	0.000000	-1.000000	-1.000000	245891.000000	1775715516.008717
-65148.705000	-29493.495000	-10177.515000	1537.920000	-19179.720000	-40091.040000	5112.360000	-25125.615000	1.984646	2.766739	2.700347	3.014125	2.961728	2.992805	1.470548	2.325592	0.686700	2.639980	-0.778260	-0.826414	-0.090637	0.545897	-1.000000	-1.000000	-1.000000	-1.000000	-1.000000	-1.000000	-1.000000	64.000000	0.000000	-1.000000	-1.000000	245892.000000	1775715516.008742
-65146.905000	-29492.685000	-10177.830000	1537.605000	-19180.935000	-40094.325000	5111.910000	-25123.950000	3.019407	3.450603	2.726304	3.142643	3.673951	4.777705	2.016613	3.196636	0.686700	2.639980	-0.778260	-0.826414	-0.090637	0.545897	-1.000000	-1.000000	-1.000000	-1.000000	-1.000000	-1.000000	-1.000000	64.000000	0.000000	-1.000000	-1.000000	245893.000000	1775715516.018084
-65151.540000	-29496.915000	-10184.670000	1529.280000	-19191.915000	-40112.595000	5106.690000	-25129.305000	2.488130	2.533182	1.479830	1.820770	2.489782	3.592158	1.682680	2.659037	0.686700	2.639980	-0.778260	-0.826414	-0.090637	0.545897	-1.000000	-1.000000	-1.000000	-1.000000	-1.000000	-1.000000	-1.000000	64.000000	0.000000	-1.000000	-1.000000	245894.000000	1775715516.018113
-65150.010000	-29492.865000	-10180.080000	1532.655000	-19191.870000	-40122.855000	5107.545000	-25128.945000	0.811525	0.536169	-0.650067	-0.723729	-0.693187	-1.286783	0.356265	0.875674	0.686700	2.639980	-0.778260	-0.826414	-0.090637	0.545897	-1.000000	-1.000000	-1.000000	-1.000000	-1.000000	-1.000000	-1.000000	64.000000	0.000000	-1.000000	-1.000000	245895.000000	1775715516.018822
-65152.575000	-29497.005000	-10183.140000	1530.360000	-19192.995000	-40123.035000	5104.935000	-25130.295000	-1.135710	-1.509279	-2.595606	-3.257877	-4.341478	-7.513584	-1.320990	-1.344416	0.686700	2.639980	-0.778260	-0.826414	-0.090637	0.545897	-1.000000	-1.000000	-1.000000	-1.000000	-1.000000	-1.000000	-1.000000	64.000000	0.000000	-1.000000	-1.000000	245896.000000	1775715516.018843
-65154.780000	-29501.685000	-10187.550000	1527.030000	-19193.670000	-40118.175000	5107.725000	-25131.150000	-2.420554	-2.780263	-3.354339	-4.336943	-6.093803	-10.609921	-2.292730	-2.826993	0.686700	2.639980	-0.778260	-0.826414	-0.090637	0.545897	-1.000000	-1.000000	-1.000000	-1.000000	-1.000000	-1.000000	-1.000000	64.000000	0.000000	-1.000000	-1.000000	245897.000000	1775715516.018869
-65155.680000	-29501.955000	-10187.145000	1527.165000	-19192.860000	-40111.785000	5112.405000	-25131.465000	-2.629324	-3.127017	-2.877601	-3.613286	-4.875522	-7.729103	-1.852154	-2.906180	0.686700	2.639980	-0.778260	-0.826414	-0.090637	0.545897	-1.000000	-1.000000	-1.000000	-1.000000	-1.000000	-1.000000	-1.000000	64.000000	0.000000	-1.000000	-1.000000	245898.000000	1775715516.018881
-65146.410000	-29494.935000	-10182.015000	1530.405000	-19190.115000	-40103.595000	5115.780000	-25127.415000	-1.663719	-2.399288	-1.446779	-1.581801	-1.456639	-0.093470	-0.070513	-1.664587	0.686700	2.639980	-0.778260	-0.826414	-0.090637	0.545897	-1.000000	-1.000000	-1.000000	-1.000000	-1.000000	-1.000000	-1.000000	64.000000	0.000000	-1.000000	-1.000000	245899.000000	1775715516.027183
-65148.885000	-29498.940000	-10186.380000	1525.635000	-19196.370000	-40107.690000	5113.845000	-25129.890000	0.350248	-0.481674	0.628250	0.942511	2.312506	7.968440	2.014798	0.289408	0.686700	2.639980	-0.778260	-0.826414	-0.090637	0.545897	-1.000000	-1.000000	-1.000000	-1.000000	-1.000000	-1.000000	-1.000000	64.000000	0.000000	-1.000000	-1.000000	245900.000000	1775715516.027208
-65151.090000	-29501.505000	-10188.540000	1524.285000	-19198.305000	-40114.215000	5113.935000	-25129.305000	2.402752	1.731182	2.421127	2.810990	4.463324	11.787143	2.949466	1.961003	-1.022420	1.693860	-0.030520	-0.827879	-0.089111	0.546080	-1.000000	-1.000000	-1.000000	-1.000000	-1.000000	-1.000000	-1.000000	64.000000	0.000000	-1.000000	-1.000000	245901.000000	1775715516.029599
-65144.340000	-29496.645000	-10184.670000	1528.020000	-19193.670000	-40109.625000	5116.005000	-25124.265000	3.183888	2.925105	2.994477	3.287372	4.283987	9.491229	2.140462	2.627359	-1.022420	1.693860	-0.030520	-0.827879	-0.089111	0.546080	-1.000000	-1.000000	-1.000000	-1.000000	-1.000000	-1.000000	-1.000000	64.000000	0.000000	-1.000000	-1.000000	245902.000000	1775715516.029620
-65140.200000	-29494.395000	-10183.905000	1528.335000	-19193.670000	-40109.130000	5115.735000	-25122.150000	2.637082	2.892058	2.490306	2.734765	2.794957	3.341873	0.317513	2.427945	-1.022420	1.693860	-0.030520	-0.827879	-0.089111	0.546080	-1.000000	-1.000000	-1.000000	-1.000000	-1.000000	-1.000000	-1.000000	64.000000	0.000000	-1.000000	-1.000000	245903.000000	1775715516.040976
-65146.005000	-29499.615000	-10189.980000	1522.395000	-19199.610000	-40112.865000	5109.885000	-25128.495000	1.478372	2.140010	1.504335	1.748140	1.191593	-2.708786	-1.480634	1.663777	-1.022420	1.693860	-0.030520	-0.827879	-0.089111	0.546080	-1.000000	-1.000000	-1.000000	-1.000000	-1.000000	-1.000000	-1.000000	64.000000	0.000000	-1.000000	-1.000000	245904.000000	1775715516.041003
-65145.735000	-29496.870000	-10186.020000	1526.625000	-19194.390000	-40107.555000	5113.260000	-25127.775000	-0.097613	0.876211	0.265089	0.486630	-0.183963	-6.114282	-2.677066	0.244109	-1.022420	1.693860	-0.030520	-0.827879	-0.089111	0.546080	-1.000000	-1.000000	-1.000000	-1.000000	-1.000000	-1.000000	-1.000000	64.000000	0.000000	-1.000000	-1.000000	245905.000000	1775715516.041032
-65153.655000	-29501.190000	-10188.270000	1524.825000	-19197.765000	-40113.090000	5111.685000	-25131.330000	-2.030404	-0.653401	-0.887719	-0.712525	-1.139001	-6.354065	-2.867739	-1.579044	-1.022420	1.693860	-0.030520	-0.827879	-0.089111	0.546080	-1.000000	-1.000000	-1.000000	-1.000000	-1.000000	-1.000000	-1.000000	64.000000	0.000000	-1.000000	-1.000000	245906.000000	1775715516.041044
-65153.565000	-29500.965000	-10187.775000	1524.735000	-19198.800000	-40116.870000	5112.045000	-25130.745000	-3.740914	-1.922596	-1.468355	-1.353570	-1.502816	-4.500329	-1.913714	-2.939640	-1.022420	1.693860	-0.030520	-0.827879	-0.089111	0.546080	-1.000000	-1.000000	-1.000000	-1.000000	-1.000000	-1.000000	-1.000000	64.000000	0.000000	-1.000000	-1.000000	245907.000000	1775715516.049944
-65150.640000	-29498.310000	-10186.020000	1527.345000	-19196.190000	-40113.045000	5115.960000	-25127.955000	-4.235469	-2.403562	-1.341141	-1.318481	-1.396967	-2.132274	-0.229886	-3.017269	-1.022420	1.693860	-0.030520	-0.827879	-0.089111	0.546080	-1.000000	-1.000000	-1.000000	-1.000000	-1.000000	-1.000000	-1.000000	64.000000	0.000000	-1.000000	-1.000000	245908.000000	1775715516.049970
-65155.680000	-29503.305000	-10191.915000	1522.485000	-19199.970000	-40112.595000	5109.210000	-25133.760000	-2.886549	-1.876140	-0.781904	-0.844848	-0.965952	0.029799	1.414657	-1.732231	-1.022420	1.693860	-0.030520	-0.827879	-0.089111	0.546080	-1.000000	-1.000000	-1.000000	-1.000000	-1.000000	-1.000000	-1.000000	64.000000	0.000000	-1.000000	-1.000000	245909.000000	1775715516.050180
-65154.330000	-29502.810000	-10191.195000	1522.620000	-19198.980000	-40112.280000	5111.325000	-25133.445000	-0.334228	-0.791650	-0.333395	-0.412524	-0.430271	1.856506	2.167781	0.019414	-1.022420	1.693860	-0.030520	-0.827879	-0.089111	0.546080	-1.000000	-1.000000	-1.000000	-1.000000	-1.000000	-1.000000	-1.000000	64.000000	0.000000	-1.000000	-1.000000	245910.000000	1775715516.050197
-65142.630000	-29491.650000	-10180.260000	1532.430000	-19192.545000	-40117.365000	5116.365000	-25123.365000	2.302390	0.391023	-0.030351	-0.131649	0.098352	2.901290	1.882095	1.437640	-1.953280	2.166920	0.961380	-0.827513	-0.087707	0.544615	-1.000000	-1.000000	-1.000000	-1.000000	-1.000000	-1.000000	-1.000000	64.000000	0.000000	-1.000000	-1.000000	245911.000000	1775715516.050220
-65140.110000	-29489.445000	-10179.495000	1533.375000	-19191.690000	-40125.240000	5114.745000	-25122.240000	4.512353	1.806484	0.770089	0.521971	0.819349	2.520753	1.286818	2.610898	-1.953280	2.166920	0.961380	-0.827513	-0.087707	0.544615	-1.000000	-1.000000	-1.000000	-1.000000	-1.000000	-1.000000	-1.000000	64.000000	0.000000	-1.000000	-1.000000	245912.000000	1775715516.050232
-65140.695000	-29488.590000	-10176.435000	1537.335000	-19186.155000	-40123.530000	5121.360000	-25119.630000	5.656005	3.142301	2.000487	1.575378	1.653473	0.779478	0.917444	3.464984	-1.953280	2.166920	0.961380	-0.827513	-0.087707	0.544615	-1.000000	-1.000000	-1.000000	-1.000000	-1.000000	-1.000000	-1.000000	64.000000	0.000000	-1.000000	-1.000000	245913.000000	1775715516.050611
-65145.735000	-29491.920000	-10178.460000	1535.355000	-19188.630000	-40120.245000	5122.485000	-25122.645000	4.639408	3.236717	2.542747	2.137443	2.031048	-0.981390	0.785011	3.230029	-1.953280	2.166920	0.961380	-0.827513	-0.087707	0.544615	-1.000000	-1.000000	-1.000000	-1.000000	-1.000000	-1.000000	-1.000000	64.000000	0.000000	-1.000000	-1.000000	245914.000000	1775715516.050628
-65147.940000	-29494.530000	-10182.150000	1530.585000	-19194.165000	-40116.330000	5116.455000	-25125.705000	1.242550	1.393302	1.497516	1.333444	1.282065	-1.189033	0.514369	1.392577	-1.953280	2.166920	0.961380	-0.827513	-0.087707	0.544615	-1.000000	-1.000000	-1.000000	-1.000000	-1.000000	-1.000000	-1.000000	64.000000	0.000000	-1.000000	-1.000000	245915.000000	1775715516.055940
